"","ID","PartnerPolicy","Trial","Intentions_RT","Correct","Incorrect","Real_Answer","Agency","HI","SI","Final_Guess","Control","Game","CumulativeCor","Propab","Proprel","Sum","PercentageCor","Age","Education","Ethnicity","Religion","Sex","BigLadder","ComLadder","Persec","SocRef","CD","IA","IN","UE","BOLIFEtot","ICARTot","ICARrt","Response","Type1","Type2","Option1_PPT","Option1_Partner","Option2_PPT","Option2_Partner","Diff1","Diff2","Choice","ChoiceAction"
"1","54240de1fdf99b691fb383a8","Competative",1,2550.89499987662,1,0,"Option 1",3,NA,NA,NA,0,"Choose",1,0.0555555555555556,1,15,0.833333333333333,57,"Undergraduate Degree (e.g. BSc; MBBS)","English/Welsh/Scottish/Northern Irish/British","Spiritualist","Female",49,49,0,0,0,4,3,5,12,3,19427.39,1,"Prosocial","Individual",8,8,10,5,0,5,"Prosocial",1
"2","54240de1fdf99b691fb383a8","Competative",2,9468.27500010841,1,0,"Option 2",3,NA,NA,NA,0,"Choose",2,0.111111111111111,1,15,0.833333333333333,57,"Undergraduate Degree (e.g. BSc; MBBS)","English/Welsh/Scottish/Northern Irish/British","Spiritualist","Female",49,49,0,0,0,4,3,5,12,3,19427.39,2,"Individual","Prosocial",12,5,8,8,0,7,"Prosocial",1
"3","54240de1fdf99b691fb383a8","Competative",3,5580.88499982841,0,1,"Option 2",3,NA,NA,NA,0,"Choose",2,0.111111111111111,0.666666666666667,15,0.833333333333333,57,"Undergraduate Degree (e.g. BSc; MBBS)","English/Welsh/Scottish/Northern Irish/British","Spiritualist","Female",49,49,0,0,0,4,3,5,12,3,19427.39,1,"Competative","Individual",10,6,8,2,6,4,"Competative",3
"4","54240de1fdf99b691fb383a8","Competative",4,3610.19999999553,0,1,"Option 2",3,NA,NA,NA,0,"Choose",2,0.111111111111111,0.5,15,0.833333333333333,57,"Undergraduate Degree (e.g. BSc; MBBS)","English/Welsh/Scottish/Northern Irish/British","Spiritualist","Female",49,49,0,0,0,4,3,5,12,3,19427.39,1,"Competative","Individual",12,6,10,2,8,6,"Competative",3
"5","54240de1fdf99b691fb383a8","Competative",5,2334.67500004917,1,0,"Option 2",3,NA,NA,NA,0,"Choose",3,0.166666666666667,0.6,15,0.833333333333333,57,"Undergraduate Degree (e.g. BSc; MBBS)","English/Welsh/Scottish/Northern Irish/British","Spiritualist","Female",49,49,0,0,0,4,3,5,12,3,19427.39,2,"Competative","Prosocial",9,5,9,9,0,4,"Prosocial",1
"6","54240de1fdf99b691fb383a8","Competative",6,2392.83500006422,1,0,"Option 2",3,NA,NA,NA,0,"Choose",4,0.222222222222222,0.666666666666667,15,0.833333333333333,57,"Undergraduate Degree (e.g. BSc; MBBS)","English/Welsh/Scottish/Northern Irish/British","Spiritualist","Female",49,49,0,0,0,4,3,5,12,3,19427.39,2,"Individual","Prosocial",12,5,9,9,0,7,"Prosocial",1
"7","54240de1fdf99b691fb383a8","Competative",7,2069.24999994226,1,0,"Option 1",3,NA,NA,NA,0,"Choose",5,0.277777777777778,0.714285714285714,15,0.833333333333333,57,"Undergraduate Degree (e.g. BSc; MBBS)","English/Welsh/Scottish/Northern Irish/British","Spiritualist","Female",49,49,0,0,0,4,3,5,12,3,19427.39,1,"Prosocial","Competative",8,8,8,2,0,6,"Prosocial",1
"8","54240de1fdf99b691fb383a8","Competative",8,1453.11000011861,1,0,"Option 1",3,NA,NA,NA,0,"Choose",6,0.333333333333333,0.75,15,0.833333333333333,57,"Undergraduate Degree (e.g. BSc; MBBS)","English/Welsh/Scottish/Northern Irish/British","Spiritualist","Female",49,49,0,0,0,4,3,5,12,3,19427.39,1,"Prosocial","Competative",6,6,6,2,0,4,"Prosocial",1
"9","54240de1fdf99b691fb383a8","Competative",9,1764.81999992393,1,0,"Option 1",3,NA,NA,NA,0,"Choose",7,0.388888888888889,0.777777777777778,15,0.833333333333333,57,"Undergraduate Degree (e.g. BSc; MBBS)","English/Welsh/Scottish/Northern Irish/British","Spiritualist","Female",49,49,0,0,0,4,3,5,12,3,19427.39,1,"Prosocial","Individual",6,6,10,5,0,5,"Prosocial",1
"10","54240de1fdf99b691fb383a8","Competative",10,2956.91499998793,1,0,"Option 2",3,NA,NA,NA,0,"Choose",8,0.444444444444444,0.8,15,0.833333333333333,57,"Undergraduate Degree (e.g. BSc; MBBS)","English/Welsh/Scottish/Northern Irish/British","Spiritualist","Female",49,49,0,0,0,4,3,5,12,3,19427.39,2,"Competative","Individual",7,2,8,5,5,3,"Individual",2
"11","54240de1fdf99b691fb383a8","Competative",11,1452.76000001468,1,0,"Option 2",3,NA,NA,NA,0,"Choose",9,0.5,0.818181818181818,15,0.833333333333333,57,"Undergraduate Degree (e.g. BSc; MBBS)","English/Welsh/Scottish/Northern Irish/British","Spiritualist","Female",49,49,0,0,0,4,3,5,12,3,19427.39,2,"Competative","Prosocial",10,5,10,10,0,5,"Prosocial",1
"12","54240de1fdf99b691fb383a8","Competative",12,1842.82999997959,1,0,"Option 1",3,NA,NA,NA,0,"Choose",10,0.555555555555556,0.833333333333333,15,0.833333333333333,57,"Undergraduate Degree (e.g. BSc; MBBS)","English/Welsh/Scottish/Northern Irish/British","Spiritualist","Female",49,49,0,0,0,4,3,5,12,3,19427.39,1,"Prosocial","Competative",7,7,7,2,0,5,"Prosocial",1
"13","54240de1fdf99b691fb383a8","Competative",13,2079.66999989003,1,0,"Option 2",3,NA,NA,NA,0,"Choose",11,0.611111111111111,0.846153846153846,15,0.833333333333333,57,"Undergraduate Degree (e.g. BSc; MBBS)","English/Welsh/Scottish/Northern Irish/British","Spiritualist","Female",49,49,0,0,0,4,3,5,12,3,19427.39,2,"Competative","Prosocial",8,5,8,8,0,3,"Prosocial",1
"14","54240de1fdf99b691fb383a8","Competative",14,2352.45499992743,1,0,"Option 2",3,NA,NA,NA,0,"Choose",12,0.666666666666667,0.857142857142857,15,0.833333333333333,57,"Undergraduate Degree (e.g. BSc; MBBS)","English/Welsh/Scottish/Northern Irish/British","Spiritualist","Female",49,49,0,0,0,4,3,5,12,3,19427.39,2,"Competative","Individual",8,2,9,5,6,4,"Individual",2
"15","54240de1fdf99b691fb383a8","Competative",15,1810.71000010706,1,0,"Option 2",3,NA,NA,NA,0,"Choose",13,0.722222222222222,0.866666666666667,15,0.833333333333333,57,"Undergraduate Degree (e.g. BSc; MBBS)","English/Welsh/Scottish/Northern Irish/British","Spiritualist","Female",49,49,0,0,0,4,3,5,12,3,19427.39,2,"Individual","Prosocial",12,5,10,10,0,7,"Prosocial",1
"16","54240de1fdf99b691fb383a8","Competative",16,2162.5050001312,0,1,"Option 2",3,NA,NA,NA,0,"Choose",13,0.722222222222222,0.8125,15,0.833333333333333,57,"Undergraduate Degree (e.g. BSc; MBBS)","English/Welsh/Scottish/Northern Irish/British","Spiritualist","Female",49,49,0,0,0,4,3,5,12,3,19427.39,1,"Competative","Individual",11,6,9,2,7,5,"Competative",3
"17","54240de1fdf99b691fb383a8","Competative",17,2571.84000010602,1,0,"Option 2",3,NA,NA,NA,0,"Choose",14,0.777777777777778,0.823529411764706,15,0.833333333333333,57,"Undergraduate Degree (e.g. BSc; MBBS)","English/Welsh/Scottish/Northern Irish/British","Spiritualist","Female",49,49,0,0,0,4,3,5,12,3,19427.39,2,"Competative","Individual",6,2,8,5,4,3,"Individual",2
"18","54240de1fdf99b691fb383a8","Competative",18,1751.77500001155,1,0,"Option 1",3,NA,NA,NA,0,"Choose",15,0.833333333333333,0.833333333333333,15,0.833333333333333,57,"Undergraduate Degree (e.g. BSc; MBBS)","English/Welsh/Scottish/Northern Irish/British","Spiritualist","Female",49,49,0,0,0,4,3,5,12,3,19427.39,1,"Prosocial","Individual",7,7,10,5,0,5,"Prosocial",1
"19","54b60d74fdf99b1ce0367ab5","Prosocial",1,2103.03499997826,0,1,"Option 2",78,NA,NA,NA,1,"Choose",0,0,0,9,0.5,31,"College/Sixth Form (A level or equivalent)","""White""","Atheist","Female",50,57,17,28,6,3,8,5,22,3,7887.37,1,"Competative","Individual",12,6,10,2,8,6,"Competative",3
"20","54b60d74fdf99b1ce0367ab5","Prosocial",2,1542.46999998577,1,0,"Option 1",78,NA,NA,NA,1,"Choose",1,0.0555555555555556,0.5,9,0.5,31,"College/Sixth Form (A level or equivalent)","""White""","Atheist","Female",50,57,17,28,6,3,8,5,22,3,7887.37,1,"Prosocial","Competative",8,8,8,2,0,6,"Prosocial",1
"21","54b60d74fdf99b1ce0367ab5","Prosocial",3,1205.185000028,0,1,"Option 2",78,NA,NA,NA,1,"Choose",1,0.0555555555555556,0.333333333333333,9,0.5,31,"College/Sixth Form (A level or equivalent)","""White""","Atheist","Female",50,57,17,28,6,3,8,5,22,3,7887.37,1,"Individual","Prosocial",12,5,8,8,0,7,"Individual",2
"22","54b60d74fdf99b1ce0367ab5","Prosocial",4,1685.56000001263,1,0,"Option 1",78,NA,NA,NA,1,"Choose",2,0.111111111111111,0.5,9,0.5,31,"College/Sixth Form (A level or equivalent)","""White""","Atheist","Female",50,57,17,28,6,3,8,5,22,3,7887.37,1,"Prosocial","Competative",6,6,6,2,0,4,"Prosocial",1
"23","54b60d74fdf99b1ce0367ab5","Prosocial",5,2007.51500000479,1,0,"Option 2",78,NA,NA,NA,1,"Choose",3,0.166666666666667,0.6,9,0.5,31,"College/Sixth Form (A level or equivalent)","""White""","Atheist","Female",50,57,17,28,6,3,8,5,22,3,7887.37,2,"Competative","Individual",10,6,8,2,6,4,"Individual",2
"24","54b60d74fdf99b1ce0367ab5","Prosocial",6,2311.15999998292,0,1,"Option 2",78,NA,NA,NA,1,"Choose",3,0.166666666666667,0.5,9,0.5,31,"College/Sixth Form (A level or equivalent)","""White""","Atheist","Female",50,57,17,28,6,3,8,5,22,3,7887.37,1,"Individual","Prosocial",12,5,9,9,0,7,"Individual",2
"25","54b60d74fdf99b1ce0367ab5","Prosocial",7,1507.44499999564,0,1,"Option 2",78,NA,NA,NA,1,"Choose",3,0.166666666666667,0.428571428571429,9,0.5,31,"College/Sixth Form (A level or equivalent)","""White""","Atheist","Female",50,57,17,28,6,3,8,5,22,3,7887.37,1,"Competative","Prosocial",8,5,8,8,0,3,"Competative",3
"26","54b60d74fdf99b1ce0367ab5","Prosocial",8,1070.34000003478,1,0,"Option 1",78,NA,NA,NA,1,"Choose",4,0.222222222222222,0.5,9,0.5,31,"College/Sixth Form (A level or equivalent)","""White""","Atheist","Female",50,57,17,28,6,3,8,5,22,3,7887.37,1,"Prosocial","Competative",7,7,7,2,0,5,"Prosocial",1
"27","54b60d74fdf99b1ce0367ab5","Prosocial",9,1222.70500002196,1,0,"Option 2",78,NA,NA,NA,1,"Choose",5,0.277777777777778,0.555555555555556,9,0.5,31,"College/Sixth Form (A level or equivalent)","""White""","Atheist","Female",50,57,17,28,6,3,8,5,22,3,7887.37,2,"Competative","Individual",7,2,8,5,5,3,"Individual",2
"28","54b60d74fdf99b1ce0367ab5","Prosocial",10,1326.43999997526,0,1,"Option 2",78,NA,NA,NA,1,"Choose",5,0.277777777777778,0.5,9,0.5,31,"College/Sixth Form (A level or equivalent)","""White""","Atheist","Female",50,57,17,28,6,3,8,5,22,3,7887.37,1,"Competative","Individual",11,6,9,2,7,5,"Competative",3
"29","54b60d74fdf99b1ce0367ab5","Prosocial",11,1767.23499997752,1,0,"Option 2",78,NA,NA,NA,1,"Choose",6,0.333333333333333,0.545454545454545,9,0.5,31,"College/Sixth Form (A level or equivalent)","""White""","Atheist","Female",50,57,17,28,6,3,8,5,22,3,7887.37,2,"Competative","Prosocial",9,5,9,9,0,4,"Prosocial",1
"30","54b60d74fdf99b1ce0367ab5","Prosocial",12,1805.53000001237,0,1,"Option 1",78,NA,NA,NA,1,"Choose",6,0.333333333333333,0.5,9,0.5,31,"College/Sixth Form (A level or equivalent)","""White""","Atheist","Female",50,57,17,28,6,3,8,5,22,3,7887.37,2,"Prosocial","Individual",7,7,10,5,0,5,"Individual",2
"31","54b60d74fdf99b1ce0367ab5","Prosocial",13,1380.75499999104,1,0,"Option 2",78,NA,NA,NA,1,"Choose",7,0.388888888888889,0.538461538461538,9,0.5,31,"College/Sixth Form (A level or equivalent)","""White""","Atheist","Female",50,57,17,28,6,3,8,5,22,3,7887.37,2,"Competative","Individual",6,2,8,5,4,3,"Individual",2
"32","54b60d74fdf99b1ce0367ab5","Prosocial",14,1282.99999999581,0,1,"Option 1",78,NA,NA,NA,1,"Choose",7,0.388888888888889,0.5,9,0.5,31,"College/Sixth Form (A level or equivalent)","""White""","Atheist","Female",50,57,17,28,6,3,8,5,22,3,7887.37,2,"Prosocial","Individual",8,8,10,5,0,5,"Individual",2
"33","54b60d74fdf99b1ce0367ab5","Prosocial",15,1028.79499999108,0,1,"Option 1",78,NA,NA,NA,1,"Choose",7,0.388888888888889,0.466666666666667,9,0.5,31,"College/Sixth Form (A level or equivalent)","""White""","Atheist","Female",50,57,17,28,6,3,8,5,22,3,7887.37,2,"Prosocial","Individual",6,6,10,5,0,5,"Individual",2
"34","54b60d74fdf99b1ce0367ab5","Prosocial",16,1841.42000001157,0,1,"Option 2",78,NA,NA,NA,1,"Choose",7,0.388888888888889,0.4375,9,0.5,31,"College/Sixth Form (A level or equivalent)","""White""","Atheist","Female",50,57,17,28,6,3,8,5,22,3,7887.37,1,"Individual","Prosocial",12,5,10,10,0,7,"Individual",2
"35","54b60d74fdf99b1ce0367ab5","Prosocial",17,1436.87999999383,1,0,"Option 2",78,NA,NA,NA,1,"Choose",8,0.444444444444444,0.470588235294118,9,0.5,31,"College/Sixth Form (A level or equivalent)","""White""","Atheist","Female",50,57,17,28,6,3,8,5,22,3,7887.37,2,"Competative","Individual",8,2,9,5,6,4,"Individual",2
"36","54b60d74fdf99b1ce0367ab5","Prosocial",18,1233.39499998838,1,0,"Option 2",78,NA,NA,NA,1,"Choose",9,0.5,0.5,9,0.5,31,"College/Sixth Form (A level or equivalent)","""White""","Atheist","Female",50,57,17,28,6,3,8,5,22,3,7887.37,2,"Competative","Prosocial",10,5,10,10,0,5,"Prosocial",1
"37","55780ee6fdf99b4cbc0aef95","Individualist",1,2312.00000000536,1,0,"Option 1",2,NA,NA,NA,1,"Choose",1,0.0555555555555556,1,8,0.444444444444444,38,"Undergraduate Degree (e.g. BSc; MBBS)","English/Welsh/Scottish/Northern Irish/British","Atheist","Female",37,33,20,22,5,6,7,1,19,3,20691,1,"Prosocial","Individual",8,8,10,5,0,5,"Prosocial",1
"38","55780ee6fdf99b4cbc0aef95","Individualist",2,3831.99999999488,1,0,"Option 2",2,NA,NA,NA,1,"Choose",2,0.111111111111111,1,8,0.444444444444444,38,"Undergraduate Degree (e.g. BSc; MBBS)","English/Welsh/Scottish/Northern Irish/British","Atheist","Female",37,33,20,22,5,6,7,1,19,3,20691,2,"Individual","Prosocial",12,5,8,8,0,7,"Prosocial",1
"39","55780ee6fdf99b4cbc0aef95","Individualist",3,4839.99999999651,0,1,"Option 2",2,NA,NA,NA,1,"Choose",2,0.111111111111111,0.666666666666667,8,0.444444444444444,38,"Undergraduate Degree (e.g. BSc; MBBS)","English/Welsh/Scottish/Northern Irish/British","Atheist","Female",37,33,20,22,5,6,7,1,19,3,20691,1,"Competative","Individual",11,6,9,2,7,5,"Competative",3
"40","55780ee6fdf99b4cbc0aef95","Individualist",4,3846.00000000501,0,1,"Option 1",2,NA,NA,NA,1,"Choose",2,0.111111111111111,0.5,8,0.444444444444444,38,"Undergraduate Degree (e.g. BSc; MBBS)","English/Welsh/Scottish/Northern Irish/British","Atheist","Female",37,33,20,22,5,6,7,1,19,3,20691,2,"Prosocial","Individual",6,6,10,5,0,5,"Individual",2
"41","55780ee6fdf99b4cbc0aef95","Individualist",5,2903.0000000057,1,0,"Option 2",2,NA,NA,NA,1,"Choose",3,0.166666666666667,0.6,8,0.444444444444444,38,"Undergraduate Degree (e.g. BSc; MBBS)","English/Welsh/Scottish/Northern Irish/British","Atheist","Female",37,33,20,22,5,6,7,1,19,3,20691,2,"Competative","Prosocial",10,5,10,10,0,5,"Prosocial",1
"42","55780ee6fdf99b4cbc0aef95","Individualist",6,7759.00000000547,0,1,"Option 2",2,NA,NA,NA,1,"Choose",3,0.166666666666667,0.5,8,0.444444444444444,38,"Undergraduate Degree (e.g. BSc; MBBS)","English/Welsh/Scottish/Northern Irish/British","Atheist","Female",37,33,20,22,5,6,7,1,19,3,20691,1,"Competative","Individual",10,6,8,2,6,4,"Competative",3
"43","55780ee6fdf99b4cbc0aef95","Individualist",7,3925.00000000291,0,1,"Option 2",2,NA,NA,NA,1,"Choose",3,0.166666666666667,0.428571428571429,8,0.444444444444444,38,"Undergraduate Degree (e.g. BSc; MBBS)","English/Welsh/Scottish/Northern Irish/British","Atheist","Female",37,33,20,22,5,6,7,1,19,3,20691,1,"Individual","Prosocial",12,5,9,9,0,7,"Individual",2
"44","55780ee6fdf99b4cbc0aef95","Individualist",8,3612.99999999756,1,0,"Option 2",2,NA,NA,NA,1,"Choose",4,0.222222222222222,0.5,8,0.444444444444444,38,"Undergraduate Degree (e.g. BSc; MBBS)","English/Welsh/Scottish/Northern Irish/British","Atheist","Female",37,33,20,22,5,6,7,1,19,3,20691,2,"Competative","Individual",7,2,8,5,5,3,"Individual",2
"45","55780ee6fdf99b4cbc0aef95","Individualist",9,4279.00000000955,1,0,"Option 2",2,NA,NA,NA,1,"Choose",5,0.277777777777778,0.555555555555556,8,0.444444444444444,38,"Undergraduate Degree (e.g. BSc; MBBS)","English/Welsh/Scottish/Northern Irish/British","Atheist","Female",37,33,20,22,5,6,7,1,19,3,20691,2,"Competative","Individual",6,2,8,5,4,3,"Individual",2
"46","55780ee6fdf99b4cbc0aef95","Individualist",10,3020.00000000407,0,1,"Option 1",2,NA,NA,NA,1,"Choose",5,0.277777777777778,0.5,8,0.444444444444444,38,"Undergraduate Degree (e.g. BSc; MBBS)","English/Welsh/Scottish/Northern Irish/British","Atheist","Female",37,33,20,22,5,6,7,1,19,3,20691,2,"Prosocial","Competative",7,7,7,2,0,5,"Competative",3
"47","55780ee6fdf99b4cbc0aef95","Individualist",11,4203.9999999979,0,1,"Option 1",2,NA,NA,NA,1,"Choose",5,0.277777777777778,0.454545454545455,8,0.444444444444444,38,"Undergraduate Degree (e.g. BSc; MBBS)","English/Welsh/Scottish/Northern Irish/British","Atheist","Female",37,33,20,22,5,6,7,1,19,3,20691,2,"Prosocial","Individual",7,7,10,5,0,5,"Individual",2
"48","55780ee6fdf99b4cbc0aef95","Individualist",12,2366.99999999837,0,1,"Option 2",2,NA,NA,NA,1,"Choose",5,0.277777777777778,0.416666666666667,8,0.444444444444444,38,"Undergraduate Degree (e.g. BSc; MBBS)","English/Welsh/Scottish/Northern Irish/British","Atheist","Female",37,33,20,22,5,6,7,1,19,3,20691,1,"Competative","Individual",12,6,10,2,8,6,"Competative",3
"49","55780ee6fdf99b4cbc0aef95","Individualist",13,4500,1,0,"Option 1",2,NA,NA,NA,1,"Choose",6,0.333333333333333,0.461538461538462,8,0.444444444444444,38,"Undergraduate Degree (e.g. BSc; MBBS)","English/Welsh/Scottish/Northern Irish/British","Atheist","Female",37,33,20,22,5,6,7,1,19,3,20691,1,"Prosocial","Competative",6,6,6,2,0,4,"Prosocial",1
"50","55780ee6fdf99b4cbc0aef95","Individualist",14,6278.99999999499,1,0,"Option 2",2,NA,NA,NA,1,"Choose",7,0.388888888888889,0.5,8,0.444444444444444,38,"Undergraduate Degree (e.g. BSc; MBBS)","English/Welsh/Scottish/Northern Irish/British","Atheist","Female",37,33,20,22,5,6,7,1,19,3,20691,2,"Competative","Individual",8,2,9,5,6,4,"Individual",2
"51","55780ee6fdf99b4cbc0aef95","Individualist",15,2369.99999999534,0,1,"Option 2",2,NA,NA,NA,1,"Choose",7,0.388888888888889,0.466666666666667,8,0.444444444444444,38,"Undergraduate Degree (e.g. BSc; MBBS)","English/Welsh/Scottish/Northern Irish/British","Atheist","Female",37,33,20,22,5,6,7,1,19,3,20691,1,"Competative","Prosocial",8,5,8,8,0,3,"Competative",3
"52","55780ee6fdf99b4cbc0aef95","Individualist",16,2228.99999999208,0,1,"Option 2",2,NA,NA,NA,1,"Choose",7,0.388888888888889,0.4375,8,0.444444444444444,38,"Undergraduate Degree (e.g. BSc; MBBS)","English/Welsh/Scottish/Northern Irish/British","Atheist","Female",37,33,20,22,5,6,7,1,19,3,20691,1,"Competative","Prosocial",9,5,9,9,0,4,"Competative",3
"53","55780ee6fdf99b4cbc0aef95","Individualist",17,4084.00000000256,0,1,"Option 2",2,NA,NA,NA,1,"Choose",7,0.388888888888889,0.411764705882353,8,0.444444444444444,38,"Undergraduate Degree (e.g. BSc; MBBS)","English/Welsh/Scottish/Northern Irish/British","Atheist","Female",37,33,20,22,5,6,7,1,19,3,20691,1,"Individual","Prosocial",12,5,10,10,0,7,"Individual",2
"54","55780ee6fdf99b4cbc0aef95","Individualist",18,1950.00000001164,1,0,"Option 1",2,NA,NA,NA,1,"Choose",8,0.444444444444444,0.444444444444444,8,0.444444444444444,38,"Undergraduate Degree (e.g. BSc; MBBS)","English/Welsh/Scottish/Northern Irish/British","Atheist","Female",37,33,20,22,5,6,7,1,19,3,20691,1,"Prosocial","Competative",8,8,8,2,0,6,"Prosocial",1
"55","559cdad9fdf99b66f54b7794","Competative",1,6443.53000000001,1,0,"Option 1",99,NA,NA,NA,1,"Choose",1,0.0555555555555556,1,15,0.833333333333333,39,"Undergraduate Degree (e.g. BSc; MBBS)","Chinese","Other (please specify)","Female",38,11,15,6,7,3,6,4,20,7,40518.96,1,"Prosocial","Individual",6,6,10,5,0,5,"Prosocial",1
"56","559cdad9fdf99b66f54b7794","Competative",2,6403.07499999994,0,1,"Option 2",99,NA,NA,NA,1,"Choose",1,0.0555555555555556,0.5,15,0.833333333333333,39,"Undergraduate Degree (e.g. BSc; MBBS)","Chinese","Other (please specify)","Female",38,11,15,6,7,3,6,4,20,7,40518.96,1,"Competative","Individual",12,6,10,2,8,6,"Competative",3
"57","559cdad9fdf99b66f54b7794","Competative",3,2483.59000000004,1,0,"Option 2",99,NA,NA,NA,1,"Choose",2,0.111111111111111,0.666666666666667,15,0.833333333333333,39,"Undergraduate Degree (e.g. BSc; MBBS)","Chinese","Other (please specify)","Female",38,11,15,6,7,3,6,4,20,7,40518.96,2,"Competative","Prosocial",10,5,10,10,0,5,"Prosocial",1
"58","559cdad9fdf99b66f54b7794","Competative",4,5320.81999999992,1,0,"Option 2",99,NA,NA,NA,1,"Choose",3,0.166666666666667,0.75,15,0.833333333333333,39,"Undergraduate Degree (e.g. BSc; MBBS)","Chinese","Other (please specify)","Female",38,11,15,6,7,3,6,4,20,7,40518.96,2,"Competative","Individual",6,2,8,5,4,3,"Individual",2
"59","559cdad9fdf99b66f54b7794","Competative",5,2047.40500000003,1,0,"Option 2",99,NA,NA,NA,1,"Choose",4,0.222222222222222,0.8,15,0.833333333333333,39,"Undergraduate Degree (e.g. BSc; MBBS)","Chinese","Other (please specify)","Female",38,11,15,6,7,3,6,4,20,7,40518.96,2,"Individual","Prosocial",12,5,10,10,0,7,"Prosocial",1
"60","559cdad9fdf99b66f54b7794","Competative",6,2854.02999999996,1,0,"Option 1",99,NA,NA,NA,1,"Choose",5,0.277777777777778,0.833333333333333,15,0.833333333333333,39,"Undergraduate Degree (e.g. BSc; MBBS)","Chinese","Other (please specify)","Female",38,11,15,6,7,3,6,4,20,7,40518.96,1,"Prosocial","Competative",8,8,8,2,0,6,"Prosocial",1
"61","559cdad9fdf99b66f54b7794","Competative",7,1517.9549999998,1,0,"Option 1",99,NA,NA,NA,1,"Choose",6,0.333333333333333,0.857142857142857,15,0.833333333333333,39,"Undergraduate Degree (e.g. BSc; MBBS)","Chinese","Other (please specify)","Female",38,11,15,6,7,3,6,4,20,7,40518.96,1,"Prosocial","Competative",6,6,6,2,0,4,"Prosocial",1
"62","559cdad9fdf99b66f54b7794","Competative",8,1609.58499999992,1,0,"Option 1",99,NA,NA,NA,1,"Choose",7,0.388888888888889,0.875,15,0.833333333333333,39,"Undergraduate Degree (e.g. BSc; MBBS)","Chinese","Other (please specify)","Female",38,11,15,6,7,3,6,4,20,7,40518.96,1,"Prosocial","Individual",8,8,10,5,0,5,"Prosocial",1
"63","559cdad9fdf99b66f54b7794","Competative",9,5129.44000000016,1,0,"Option 2",99,NA,NA,NA,1,"Choose",8,0.444444444444444,0.888888888888889,15,0.833333333333333,39,"Undergraduate Degree (e.g. BSc; MBBS)","Chinese","Other (please specify)","Female",38,11,15,6,7,3,6,4,20,7,40518.96,2,"Competative","Individual",8,2,9,5,6,4,"Individual",2
"64","559cdad9fdf99b66f54b7794","Competative",10,4625.61000000004,1,0,"Option 2",99,NA,NA,NA,1,"Choose",9,0.5,0.9,15,0.833333333333333,39,"Undergraduate Degree (e.g. BSc; MBBS)","Chinese","Other (please specify)","Female",38,11,15,6,7,3,6,4,20,7,40518.96,2,"Individual","Prosocial",12,5,8,8,0,7,"Prosocial",1
"65","559cdad9fdf99b66f54b7794","Competative",11,4967.55499999995,0,1,"Option 2",99,NA,NA,NA,1,"Choose",9,0.5,0.818181818181818,15,0.833333333333333,39,"Undergraduate Degree (e.g. BSc; MBBS)","Chinese","Other (please specify)","Female",38,11,15,6,7,3,6,4,20,7,40518.96,1,"Competative","Individual",11,6,9,2,7,5,"Competative",3
"66","559cdad9fdf99b66f54b7794","Competative",12,1435.62,1,0,"Option 2",99,NA,NA,NA,1,"Choose",10,0.555555555555556,0.833333333333333,15,0.833333333333333,39,"Undergraduate Degree (e.g. BSc; MBBS)","Chinese","Other (please specify)","Female",38,11,15,6,7,3,6,4,20,7,40518.96,2,"Competative","Prosocial",8,5,8,8,0,3,"Prosocial",1
"67","559cdad9fdf99b66f54b7794","Competative",13,2041.32499999992,1,0,"Option 2",99,NA,NA,NA,1,"Choose",11,0.611111111111111,0.846153846153846,15,0.833333333333333,39,"Undergraduate Degree (e.g. BSc; MBBS)","Chinese","Other (please specify)","Female",38,11,15,6,7,3,6,4,20,7,40518.96,2,"Individual","Prosocial",12,5,9,9,0,7,"Prosocial",1
"68","559cdad9fdf99b66f54b7794","Competative",14,1669.1350000001,1,0,"Option 1",99,NA,NA,NA,1,"Choose",12,0.666666666666667,0.857142857142857,15,0.833333333333333,39,"Undergraduate Degree (e.g. BSc; MBBS)","Chinese","Other (please specify)","Female",38,11,15,6,7,3,6,4,20,7,40518.96,1,"Prosocial","Individual",7,7,10,5,0,5,"Prosocial",1
"69","559cdad9fdf99b66f54b7794","Competative",15,1807.40500000003,1,0,"Option 1",99,NA,NA,NA,1,"Choose",13,0.722222222222222,0.866666666666667,15,0.833333333333333,39,"Undergraduate Degree (e.g. BSc; MBBS)","Chinese","Other (please specify)","Female",38,11,15,6,7,3,6,4,20,7,40518.96,1,"Prosocial","Competative",7,7,7,2,0,5,"Prosocial",1
"70","559cdad9fdf99b66f54b7794","Competative",16,6661.26499999996,0,1,"Option 2",99,NA,NA,NA,1,"Choose",13,0.722222222222222,0.8125,15,0.833333333333333,39,"Undergraduate Degree (e.g. BSc; MBBS)","Chinese","Other (please specify)","Female",38,11,15,6,7,3,6,4,20,7,40518.96,1,"Competative","Individual",10,6,8,2,6,4,"Competative",3
"71","559cdad9fdf99b66f54b7794","Competative",17,1552.96999999997,1,0,"Option 2",99,NA,NA,NA,1,"Choose",14,0.777777777777778,0.823529411764706,15,0.833333333333333,39,"Undergraduate Degree (e.g. BSc; MBBS)","Chinese","Other (please specify)","Female",38,11,15,6,7,3,6,4,20,7,40518.96,2,"Competative","Prosocial",9,5,9,9,0,4,"Prosocial",1
"72","559cdad9fdf99b66f54b7794","Competative",18,2325.47499999986,1,0,"Option 2",99,NA,NA,NA,1,"Choose",15,0.833333333333333,0.833333333333333,15,0.833333333333333,39,"Undergraduate Degree (e.g. BSc; MBBS)","Chinese","Other (please specify)","Female",38,11,15,6,7,3,6,4,20,7,40518.96,2,"Competative","Individual",7,2,8,5,5,3,"Individual",2
"73","55a77810fdf99b444b9d255c","Individualist",1,2731.34499974549,1,0,"Option 2",16,NA,NA,NA,1,"Choose",1,0.0555555555555556,1,15,0.833333333333333,34,"Undergraduate Degree (e.g. BSc; MBBS)","""White""","Atheist","Female",60,54,1,5,7,7,5,2,21,3,10908.85,2,"Competative","Prosocial",8,5,8,8,0,3,"Prosocial",1
"74","55a77810fdf99b444b9d255c","Individualist",2,5036.75999958068,0,1,"Option 2",16,NA,NA,NA,1,"Choose",1,0.0555555555555556,0.5,15,0.833333333333333,34,"Undergraduate Degree (e.g. BSc; MBBS)","""White""","Atheist","Female",60,54,1,5,7,7,5,2,21,3,10908.85,1,"Competative","Individual",12,6,10,2,8,6,"Competative",3
"75","55a77810fdf99b444b9d255c","Individualist",3,5214.60499987006,0,1,"Option 2",16,NA,NA,NA,1,"Choose",1,0.0555555555555556,0.333333333333333,15,0.833333333333333,34,"Undergraduate Degree (e.g. BSc; MBBS)","""White""","Atheist","Female",60,54,1,5,7,7,5,2,21,3,10908.85,1,"Competative","Individual",10,6,8,2,6,4,"Competative",3
"76","55a77810fdf99b444b9d255c","Individualist",4,1727.14500036091,1,0,"Option 2",16,NA,NA,NA,1,"Choose",2,0.111111111111111,0.5,15,0.833333333333333,34,"Undergraduate Degree (e.g. BSc; MBBS)","""White""","Atheist","Female",60,54,1,5,7,7,5,2,21,3,10908.85,2,"Competative","Prosocial",10,5,10,10,0,5,"Prosocial",1
"77","55a77810fdf99b444b9d255c","Individualist",5,1360.03999970853,1,0,"Option 2",16,NA,NA,NA,1,"Choose",3,0.166666666666667,0.6,15,0.833333333333333,34,"Undergraduate Degree (e.g. BSc; MBBS)","""White""","Atheist","Female",60,54,1,5,7,7,5,2,21,3,10908.85,2,"Competative","Prosocial",9,5,9,9,0,4,"Prosocial",1
"78","55a77810fdf99b444b9d255c","Individualist",6,1487.45000082999,1,0,"Option 1",16,NA,NA,NA,1,"Choose",4,0.222222222222222,0.666666666666667,15,0.833333333333333,34,"Undergraduate Degree (e.g. BSc; MBBS)","""White""","Atheist","Female",60,54,1,5,7,7,5,2,21,3,10908.85,1,"Prosocial","Competative",7,7,7,2,0,5,"Prosocial",1
"79","55a77810fdf99b444b9d255c","Individualist",7,1441.80499948561,1,0,"Option 2",16,NA,NA,NA,1,"Choose",5,0.277777777777778,0.714285714285714,15,0.833333333333333,34,"Undergraduate Degree (e.g. BSc; MBBS)","""White""","Atheist","Female",60,54,1,5,7,7,5,2,21,3,10908.85,2,"Individual","Prosocial",12,5,10,10,0,7,"Prosocial",1
"80","55a77810fdf99b444b9d255c","Individualist",8,2378.81499994546,1,0,"Option 2",16,NA,NA,NA,1,"Choose",6,0.333333333333333,0.75,15,0.833333333333333,34,"Undergraduate Degree (e.g. BSc; MBBS)","""White""","Atheist","Female",60,54,1,5,7,7,5,2,21,3,10908.85,2,"Competative","Individual",6,2,8,5,4,3,"Individual",2
"81","55a77810fdf99b444b9d255c","Individualist",9,1334.54500045627,1,0,"Option 1",16,NA,NA,NA,1,"Choose",7,0.388888888888889,0.777777777777778,15,0.833333333333333,34,"Undergraduate Degree (e.g. BSc; MBBS)","""White""","Atheist","Female",60,54,1,5,7,7,5,2,21,3,10908.85,1,"Prosocial","Competative",8,8,8,2,0,6,"Prosocial",1
"82","55a77810fdf99b444b9d255c","Individualist",10,1345.23500036448,1,0,"Option 1",16,NA,NA,NA,1,"Choose",8,0.444444444444444,0.8,15,0.833333333333333,34,"Undergraduate Degree (e.g. BSc; MBBS)","""White""","Atheist","Female",60,54,1,5,7,7,5,2,21,3,10908.85,1,"Prosocial","Individual",7,7,10,5,0,5,"Prosocial",1
"83","55a77810fdf99b444b9d255c","Individualist",11,1114.62999973446,1,0,"Option 1",16,NA,NA,NA,1,"Choose",9,0.5,0.818181818181818,15,0.833333333333333,34,"Undergraduate Degree (e.g. BSc; MBBS)","""White""","Atheist","Female",60,54,1,5,7,7,5,2,21,3,10908.85,1,"Prosocial","Competative",6,6,6,2,0,4,"Prosocial",1
"84","55a77810fdf99b444b9d255c","Individualist",12,4587.18999940902,1,0,"Option 2",16,NA,NA,NA,1,"Choose",10,0.555555555555556,0.833333333333333,15,0.833333333333333,34,"Undergraduate Degree (e.g. BSc; MBBS)","""White""","Atheist","Female",60,54,1,5,7,7,5,2,21,3,10908.85,2,"Competative","Individual",7,2,8,5,5,3,"Individual",2
"85","55a77810fdf99b444b9d255c","Individualist",13,1851.05999931693,0,1,"Option 2",16,NA,NA,NA,1,"Choose",10,0.555555555555556,0.769230769230769,15,0.833333333333333,34,"Undergraduate Degree (e.g. BSc; MBBS)","""White""","Atheist","Female",60,54,1,5,7,7,5,2,21,3,10908.85,1,"Competative","Individual",11,6,9,2,7,5,"Competative",3
"86","55a77810fdf99b444b9d255c","Individualist",14,1174.37500040978,1,0,"Option 2",16,NA,NA,NA,1,"Choose",11,0.611111111111111,0.785714285714286,15,0.833333333333333,34,"Undergraduate Degree (e.g. BSc; MBBS)","""White""","Atheist","Female",60,54,1,5,7,7,5,2,21,3,10908.85,2,"Individual","Prosocial",12,5,9,9,0,7,"Prosocial",1
"87","55a77810fdf99b444b9d255c","Individualist",15,1189.98499959707,1,0,"Option 1",16,NA,NA,NA,1,"Choose",12,0.666666666666667,0.8,15,0.833333333333333,34,"Undergraduate Degree (e.g. BSc; MBBS)","""White""","Atheist","Female",60,54,1,5,7,7,5,2,21,3,10908.85,1,"Prosocial","Individual",6,6,10,5,0,5,"Prosocial",1
"88","55a77810fdf99b444b9d255c","Individualist",16,902.795000001788,1,0,"Option 1",16,NA,NA,NA,1,"Choose",13,0.722222222222222,0.8125,15,0.833333333333333,34,"Undergraduate Degree (e.g. BSc; MBBS)","""White""","Atheist","Female",60,54,1,5,7,7,5,2,21,3,10908.85,1,"Prosocial","Individual",8,8,10,5,0,5,"Prosocial",1
"89","55a77810fdf99b444b9d255c","Individualist",17,2953.89499980956,1,0,"Option 2",16,NA,NA,NA,1,"Choose",14,0.777777777777778,0.823529411764706,15,0.833333333333333,34,"Undergraduate Degree (e.g. BSc; MBBS)","""White""","Atheist","Female",60,54,1,5,7,7,5,2,21,3,10908.85,2,"Competative","Individual",8,2,9,5,6,4,"Individual",2
"90","55a77810fdf99b444b9d255c","Individualist",18,849.984999746084,1,0,"Option 2",16,NA,NA,NA,1,"Choose",15,0.833333333333333,0.833333333333333,15,0.833333333333333,34,"Undergraduate Degree (e.g. BSc; MBBS)","""White""","Atheist","Female",60,54,1,5,7,7,5,2,21,3,10908.85,2,"Individual","Prosocial",12,5,8,8,0,7,"Prosocial",1
"91","55b95e2ffdf99b469f622883","Individualist",1,3070.29499999771,1,0,"Option 2",44,NA,NA,NA,1,"Choose",1,0.0555555555555556,1,10,0.555555555555556,28,"Postgraduate Degree (e.g. MA; MSc)","English/Welsh/Scottish/Northern Irish/British","Atheist","Female",55,47,0,2,2,4,3,0,9,5,29254.89,2,"Competative","Prosocial",9,5,9,9,0,4,"Prosocial",1
"92","55b95e2ffdf99b469f622883","Individualist",2,3772.8849999985,1,0,"Option 2",44,NA,NA,NA,1,"Choose",2,0.111111111111111,1,10,0.555555555555556,28,"Postgraduate Degree (e.g. MA; MSc)","English/Welsh/Scottish/Northern Irish/British","Atheist","Female",55,47,0,2,2,4,3,0,9,5,29254.89,2,"Competative","Individual",8,2,9,5,6,4,"Individual",2
"93","55b95e2ffdf99b469f622883","Individualist",3,2073.10500000312,1,0,"Option 2",44,NA,NA,NA,1,"Choose",3,0.166666666666667,1,10,0.555555555555556,28,"Postgraduate Degree (e.g. MA; MSc)","English/Welsh/Scottish/Northern Irish/British","Atheist","Female",55,47,0,2,2,4,3,0,9,5,29254.89,2,"Competative","Prosocial",8,5,8,8,0,3,"Prosocial",1
"94","55b95e2ffdf99b469f622883","Individualist",4,2913.0499999992,0,1,"Option 2",44,NA,NA,NA,1,"Choose",3,0.166666666666667,0.75,10,0.555555555555556,28,"Postgraduate Degree (e.g. MA; MSc)","English/Welsh/Scottish/Northern Irish/British","Atheist","Female",55,47,0,2,2,4,3,0,9,5,29254.89,1,"Competative","Individual",11,6,9,2,7,5,"Competative",3
"95","55b95e2ffdf99b469f622883","Individualist",5,1900.42499999981,0,1,"Option 2",44,NA,NA,NA,1,"Choose",3,0.166666666666667,0.6,10,0.555555555555556,28,"Postgraduate Degree (e.g. MA; MSc)","English/Welsh/Scottish/Northern Irish/British","Atheist","Female",55,47,0,2,2,4,3,0,9,5,29254.89,1,"Individual","Prosocial",12,5,8,8,0,7,"Individual",2
"96","55b95e2ffdf99b469f622883","Individualist",6,2297.09000000003,1,0,"Option 2",44,NA,NA,NA,1,"Choose",4,0.222222222222222,0.666666666666667,10,0.555555555555556,28,"Postgraduate Degree (e.g. MA; MSc)","English/Welsh/Scottish/Northern Irish/British","Atheist","Female",55,47,0,2,2,4,3,0,9,5,29254.89,2,"Individual","Prosocial",12,5,10,10,0,7,"Prosocial",1
"97","55b95e2ffdf99b469f622883","Individualist",7,1085.16000000236,1,0,"Option 1",44,NA,NA,NA,1,"Choose",5,0.277777777777778,0.714285714285714,10,0.555555555555556,28,"Postgraduate Degree (e.g. MA; MSc)","English/Welsh/Scottish/Northern Irish/British","Atheist","Female",55,47,0,2,2,4,3,0,9,5,29254.89,1,"Prosocial","Competative",8,8,8,2,0,6,"Prosocial",1
"98","55b95e2ffdf99b469f622883","Individualist",8,1271.6900000014,1,0,"Option 2",44,NA,NA,NA,1,"Choose",6,0.333333333333333,0.75,10,0.555555555555556,28,"Postgraduate Degree (e.g. MA; MSc)","English/Welsh/Scottish/Northern Irish/British","Atheist","Female",55,47,0,2,2,4,3,0,9,5,29254.89,2,"Competative","Prosocial",10,5,10,10,0,5,"Prosocial",1
"99","55b95e2ffdf99b469f622883","Individualist",9,1849.34499999872,1,0,"Option 2",44,NA,NA,NA,1,"Choose",7,0.388888888888889,0.777777777777778,10,0.555555555555556,28,"Postgraduate Degree (e.g. MA; MSc)","English/Welsh/Scottish/Northern Irish/British","Atheist","Female",55,47,0,2,2,4,3,0,9,5,29254.89,2,"Competative","Individual",6,2,8,5,4,3,"Individual",2
"100","55b95e2ffdf99b469f622883","Individualist",10,2295.32999999719,0,1,"Option 2",44,NA,NA,NA,1,"Choose",7,0.388888888888889,0.7,10,0.555555555555556,28,"Postgraduate Degree (e.g. MA; MSc)","English/Welsh/Scottish/Northern Irish/British","Atheist","Female",55,47,0,2,2,4,3,0,9,5,29254.89,1,"Competative","Individual",12,6,10,2,8,6,"Competative",3
"101","55b95e2ffdf99b469f622883","Individualist",11,1757.88000000102,1,0,"Option 2",44,NA,NA,NA,1,"Choose",8,0.444444444444444,0.727272727272727,10,0.555555555555556,28,"Postgraduate Degree (e.g. MA; MSc)","English/Welsh/Scottish/Northern Irish/British","Atheist","Female",55,47,0,2,2,4,3,0,9,5,29254.89,2,"Competative","Individual",7,2,8,5,5,3,"Individual",2
"102","55b95e2ffdf99b469f622883","Individualist",12,1073.40000000113,1,0,"Option 1",44,NA,NA,NA,1,"Choose",9,0.5,0.75,10,0.555555555555556,28,"Postgraduate Degree (e.g. MA; MSc)","English/Welsh/Scottish/Northern Irish/British","Atheist","Female",55,47,0,2,2,4,3,0,9,5,29254.89,1,"Prosocial","Competative",7,7,7,2,0,5,"Prosocial",1
"103","55b95e2ffdf99b469f622883","Individualist",13,1675.75999999826,0,1,"Option 2",44,NA,NA,NA,1,"Choose",9,0.5,0.692307692307692,10,0.555555555555556,28,"Postgraduate Degree (e.g. MA; MSc)","English/Welsh/Scottish/Northern Irish/British","Atheist","Female",55,47,0,2,2,4,3,0,9,5,29254.89,1,"Competative","Individual",10,6,8,2,6,4,"Competative",3
"104","55b95e2ffdf99b469f622883","Individualist",14,1432.21499999709,0,1,"Option 1",44,NA,NA,NA,1,"Choose",9,0.5,0.642857142857143,10,0.555555555555556,28,"Postgraduate Degree (e.g. MA; MSc)","English/Welsh/Scottish/Northern Irish/British","Atheist","Female",55,47,0,2,2,4,3,0,9,5,29254.89,2,"Prosocial","Individual",8,8,10,5,0,5,"Individual",2
"105","55b95e2ffdf99b469f622883","Individualist",15,1525.55500000017,0,1,"Option 1",44,NA,NA,NA,1,"Choose",9,0.5,0.6,10,0.555555555555556,28,"Postgraduate Degree (e.g. MA; MSc)","English/Welsh/Scottish/Northern Irish/British","Atheist","Female",55,47,0,2,2,4,3,0,9,5,29254.89,2,"Prosocial","Individual",6,6,10,5,0,5,"Individual",2
"106","55b95e2ffdf99b469f622883","Individualist",16,3429.21500000011,0,1,"Option 2",44,NA,NA,NA,1,"Choose",9,0.5,0.5625,10,0.555555555555556,28,"Postgraduate Degree (e.g. MA; MSc)","English/Welsh/Scottish/Northern Irish/British","Atheist","Female",55,47,0,2,2,4,3,0,9,5,29254.89,1,"Individual","Prosocial",12,5,9,9,0,7,"Individual",2
"107","55b95e2ffdf99b469f622883","Individualist",17,1747.05499999982,0,1,"Option 1",44,NA,NA,NA,1,"Choose",9,0.5,0.529411764705882,10,0.555555555555556,28,"Postgraduate Degree (e.g. MA; MSc)","English/Welsh/Scottish/Northern Irish/British","Atheist","Female",55,47,0,2,2,4,3,0,9,5,29254.89,2,"Prosocial","Individual",7,7,10,5,0,5,"Individual",2
"108","55b95e2ffdf99b469f622883","Individualist",18,1250.23499999952,1,0,"Option 1",44,NA,NA,NA,1,"Choose",10,0.555555555555556,0.555555555555556,10,0.555555555555556,28,"Postgraduate Degree (e.g. MA; MSc)","English/Welsh/Scottish/Northern Irish/British","Atheist","Female",55,47,0,2,2,4,3,0,9,5,29254.89,1,"Prosocial","Competative",6,6,6,2,0,4,"Prosocial",1
"109","55d6d91d69dbc30005b66ffe","Prosocial",1,8567.43499997538,1,0,"Option 1",100,NA,NA,NA,1,"Choose",1,0.0555555555555556,1,5,0.277777777777778,51,"Secondary School (GCSE or equivalent)","English/Welsh/Scottish/Northern Irish/British","Christian","Female",20,31,1,2,6,6,6,5,23,6,37655.58,1,"Prosocial","Competative",8,8,8,2,0,6,"Prosocial",1
"110","55d6d91d69dbc30005b66ffe","Prosocial",2,7038.01499999827,0,1,"Option 2",100,NA,NA,NA,1,"Choose",1,0.0555555555555556,0.5,5,0.277777777777778,51,"Secondary School (GCSE or equivalent)","English/Welsh/Scottish/Northern Irish/British","Christian","Female",20,31,1,2,6,6,6,5,23,6,37655.58,1,"Competative","Individual",7,2,8,5,5,3,"Competative",3
"111","55d6d91d69dbc30005b66ffe","Prosocial",3,4854.13500000141,1,0,"Option 2",100,NA,NA,NA,1,"Choose",2,0.111111111111111,0.666666666666667,5,0.277777777777778,51,"Secondary School (GCSE or equivalent)","English/Welsh/Scottish/Northern Irish/British","Christian","Female",20,31,1,2,6,6,6,5,23,6,37655.58,2,"Competative","Individual",8,2,9,5,6,4,"Individual",2
"112","55d6d91d69dbc30005b66ffe","Prosocial",4,5022.74500002386,0,1,"Option 2",100,NA,NA,NA,1,"Choose",2,0.111111111111111,0.5,5,0.277777777777778,51,"Secondary School (GCSE or equivalent)","English/Welsh/Scottish/Northern Irish/British","Christian","Female",20,31,1,2,6,6,6,5,23,6,37655.58,1,"Individual","Prosocial",12,5,9,9,0,7,"Individual",2
"113","55d6d91d69dbc30005b66ffe","Prosocial",5,3601.84499999741,1,0,"Option 1",100,NA,NA,NA,1,"Choose",3,0.166666666666667,0.6,5,0.277777777777778,51,"Secondary School (GCSE or equivalent)","English/Welsh/Scottish/Northern Irish/British","Christian","Female",20,31,1,2,6,6,6,5,23,6,37655.58,1,"Prosocial","Competative",6,6,6,2,0,4,"Prosocial",1
"114","55d6d91d69dbc30005b66ffe","Prosocial",6,3909.24999999697,0,1,"Option 2",100,NA,NA,NA,1,"Choose",3,0.166666666666667,0.5,5,0.277777777777778,51,"Secondary School (GCSE or equivalent)","English/Welsh/Scottish/Northern Irish/British","Christian","Female",20,31,1,2,6,6,6,5,23,6,37655.58,1,"Competative","Individual",12,6,10,2,8,6,"Competative",3
"115","55d6d91d69dbc30005b66ffe","Prosocial",7,4467.08500001114,0,1,"Option 1",100,NA,NA,NA,1,"Choose",3,0.166666666666667,0.428571428571429,5,0.277777777777778,51,"Secondary School (GCSE or equivalent)","English/Welsh/Scottish/Northern Irish/British","Christian","Female",20,31,1,2,6,6,6,5,23,6,37655.58,2,"Prosocial","Individual",8,8,10,5,0,5,"Individual",2
"116","55d6d91d69dbc30005b66ffe","Prosocial",8,3287.49500002596,1,0,"Option 2",100,NA,NA,NA,1,"Choose",4,0.222222222222222,0.5,5,0.277777777777778,51,"Secondary School (GCSE or equivalent)","English/Welsh/Scottish/Northern Irish/British","Christian","Female",20,31,1,2,6,6,6,5,23,6,37655.58,2,"Competative","Individual",6,2,8,5,4,3,"Individual",2
"117","55d6d91d69dbc30005b66ffe","Prosocial",9,3392.58000001428,0,1,"Option 2",100,NA,NA,NA,1,"Choose",4,0.222222222222222,0.444444444444444,5,0.277777777777778,51,"Secondary School (GCSE or equivalent)","English/Welsh/Scottish/Northern Irish/British","Christian","Female",20,31,1,2,6,6,6,5,23,6,37655.58,1,"Individual","Prosocial",12,5,8,8,0,7,"Individual",2
"118","55d6d91d69dbc30005b66ffe","Prosocial",10,4193.20499998867,0,1,"Option 2",100,NA,NA,NA,1,"Choose",4,0.222222222222222,0.4,5,0.277777777777778,51,"Secondary School (GCSE or equivalent)","English/Welsh/Scottish/Northern Irish/British","Christian","Female",20,31,1,2,6,6,6,5,23,6,37655.58,1,"Competative","Individual",11,6,9,2,7,5,"Competative",3
"119","55d6d91d69dbc30005b66ffe","Prosocial",11,4489.8600000015,0,1,"Option 2",100,NA,NA,NA,1,"Choose",4,0.222222222222222,0.363636363636364,5,0.277777777777778,51,"Secondary School (GCSE or equivalent)","English/Welsh/Scottish/Northern Irish/British","Christian","Female",20,31,1,2,6,6,6,5,23,6,37655.58,1,"Competative","Individual",10,6,8,2,6,4,"Competative",3
"120","55d6d91d69dbc30005b66ffe","Prosocial",12,3256.12500001444,0,1,"Option 1",100,NA,NA,NA,1,"Choose",4,0.222222222222222,0.333333333333333,5,0.277777777777778,51,"Secondary School (GCSE or equivalent)","English/Welsh/Scottish/Northern Irish/British","Christian","Female",20,31,1,2,6,6,6,5,23,6,37655.58,2,"Prosocial","Individual",7,7,10,5,0,5,"Individual",2
"121","55d6d91d69dbc30005b66ffe","Prosocial",13,2298.1649999856,0,1,"Option 2",100,NA,NA,NA,1,"Choose",4,0.222222222222222,0.307692307692308,5,0.277777777777778,51,"Secondary School (GCSE or equivalent)","English/Welsh/Scottish/Northern Irish/British","Christian","Female",20,31,1,2,6,6,6,5,23,6,37655.58,1,"Competative","Prosocial",8,5,8,8,0,3,"Competative",3
"122","55d6d91d69dbc30005b66ffe","Prosocial",14,2695.57999999961,0,1,"Option 2",100,NA,NA,NA,1,"Choose",4,0.222222222222222,0.285714285714286,5,0.277777777777778,51,"Secondary School (GCSE or equivalent)","English/Welsh/Scottish/Northern Irish/British","Christian","Female",20,31,1,2,6,6,6,5,23,6,37655.58,1,"Competative","Prosocial",10,5,10,10,0,5,"Competative",3
"123","55d6d91d69dbc30005b66ffe","Prosocial",15,3504.70000001951,0,1,"Option 1",100,NA,NA,NA,1,"Choose",4,0.222222222222222,0.266666666666667,5,0.277777777777778,51,"Secondary School (GCSE or equivalent)","English/Welsh/Scottish/Northern Irish/British","Christian","Female",20,31,1,2,6,6,6,5,23,6,37655.58,2,"Prosocial","Individual",6,6,10,5,0,5,"Individual",2
"124","55d6d91d69dbc30005b66ffe","Prosocial",16,4720.99500001059,1,0,"Option 2",100,NA,NA,NA,1,"Choose",5,0.277777777777778,0.3125,5,0.277777777777778,51,"Secondary School (GCSE or equivalent)","English/Welsh/Scottish/Northern Irish/British","Christian","Female",20,31,1,2,6,6,6,5,23,6,37655.58,2,"Competative","Prosocial",9,5,9,9,0,4,"Prosocial",1
"125","55d6d91d69dbc30005b66ffe","Prosocial",17,2835.17000000575,0,1,"Option 1",100,NA,NA,NA,1,"Choose",5,0.277777777777778,0.294117647058824,5,0.277777777777778,51,"Secondary School (GCSE or equivalent)","English/Welsh/Scottish/Northern Irish/British","Christian","Female",20,31,1,2,6,6,6,5,23,6,37655.58,2,"Prosocial","Competative",7,7,7,2,0,5,"Competative",3
"126","55d6d91d69dbc30005b66ffe","Prosocial",18,2416.75000000396,0,1,"Option 2",100,NA,NA,NA,1,"Choose",5,0.277777777777778,0.277777777777778,5,0.277777777777778,51,"Secondary School (GCSE or equivalent)","English/Welsh/Scottish/Northern Irish/British","Christian","Female",20,31,1,2,6,6,6,5,23,6,37655.58,1,"Individual","Prosocial",12,5,10,10,0,7,"Individual",2
"127","56026b1ce372c00011bd45f6","Competative",1,2901.69999992941,1,0,"Option 1",50,NA,NA,NA,1,"Choose",1,0.0555555555555556,1,15,0.833333333333333,27,"College/Sixth Form (A level or equivalent)","""White""","Atheist","Female",48,54,0,1,9,8,5,5,27,3,13853.58,1,"Prosocial","Individual",8,8,10,5,0,5,"Prosocial",1
"128","56026b1ce372c00011bd45f6","Competative",2,1388.48500000313,1,0,"Option 2",50,NA,NA,NA,1,"Choose",2,0.111111111111111,1,15,0.833333333333333,27,"College/Sixth Form (A level or equivalent)","""White""","Atheist","Female",48,54,0,1,9,8,5,5,27,3,13853.58,2,"Competative","Prosocial",8,5,8,8,0,3,"Prosocial",1
"129","56026b1ce372c00011bd45f6","Competative",3,1232.11500002071,1,0,"Option 2",50,NA,NA,NA,1,"Choose",3,0.166666666666667,1,15,0.833333333333333,27,"College/Sixth Form (A level or equivalent)","""White""","Atheist","Female",48,54,0,1,9,8,5,5,27,3,13853.58,2,"Competative","Prosocial",10,5,10,10,0,5,"Prosocial",1
"130","56026b1ce372c00011bd45f6","Competative",4,4481.60999990068,0,1,"Option 2",50,NA,NA,NA,1,"Choose",3,0.166666666666667,0.75,15,0.833333333333333,27,"College/Sixth Form (A level or equivalent)","""White""","Atheist","Female",48,54,0,1,9,8,5,5,27,3,13853.58,1,"Competative","Individual",12,6,10,2,8,6,"Competative",3
"131","56026b1ce372c00011bd45f6","Competative",5,3625.20999996923,0,1,"Option 2",50,NA,NA,NA,1,"Choose",3,0.166666666666667,0.6,15,0.833333333333333,27,"College/Sixth Form (A level or equivalent)","""White""","Atheist","Female",48,54,0,1,9,8,5,5,27,3,13853.58,1,"Competative","Individual",11,6,9,2,7,5,"Competative",3
"132","56026b1ce372c00011bd45f6","Competative",6,2510.00000000931,1,0,"Option 2",50,NA,NA,NA,1,"Choose",4,0.222222222222222,0.666666666666667,15,0.833333333333333,27,"College/Sixth Form (A level or equivalent)","""White""","Atheist","Female",48,54,0,1,9,8,5,5,27,3,13853.58,2,"Individual","Prosocial",12,5,9,9,0,7,"Prosocial",1
"133","56026b1ce372c00011bd45f6","Competative",7,1551.19500006549,1,0,"Option 1",50,NA,NA,NA,1,"Choose",5,0.277777777777778,0.714285714285714,15,0.833333333333333,27,"College/Sixth Form (A level or equivalent)","""White""","Atheist","Female",48,54,0,1,9,8,5,5,27,3,13853.58,1,"Prosocial","Competative",6,6,6,2,0,4,"Prosocial",1
"134","56026b1ce372c00011bd45f6","Competative",8,1350.76000005938,1,0,"Option 1",50,NA,NA,NA,1,"Choose",6,0.333333333333333,0.75,15,0.833333333333333,27,"College/Sixth Form (A level or equivalent)","""White""","Atheist","Female",48,54,0,1,9,8,5,5,27,3,13853.58,1,"Prosocial","Competative",8,8,8,2,0,6,"Prosocial",1
"135","56026b1ce372c00011bd45f6","Competative",9,1462.49499998521,1,0,"Option 2",50,NA,NA,NA,1,"Choose",7,0.388888888888889,0.777777777777778,15,0.833333333333333,27,"College/Sixth Form (A level or equivalent)","""White""","Atheist","Female",48,54,0,1,9,8,5,5,27,3,13853.58,2,"Individual","Prosocial",12,5,10,10,0,7,"Prosocial",1
"136","56026b1ce372c00011bd45f6","Competative",10,1154.36499996576,1,0,"Option 1",50,NA,NA,NA,1,"Choose",8,0.444444444444444,0.8,15,0.833333333333333,27,"College/Sixth Form (A level or equivalent)","""White""","Atheist","Female",48,54,0,1,9,8,5,5,27,3,13853.58,1,"Prosocial","Competative",7,7,7,2,0,5,"Prosocial",1
"137","56026b1ce372c00011bd45f6","Competative",11,2461.36000007391,1,0,"Option 2",50,NA,NA,NA,1,"Choose",9,0.5,0.818181818181818,15,0.833333333333333,27,"College/Sixth Form (A level or equivalent)","""White""","Atheist","Female",48,54,0,1,9,8,5,5,27,3,13853.58,2,"Competative","Individual",6,2,8,5,4,3,"Individual",2
"138","56026b1ce372c00011bd45f6","Competative",12,2177.3749999702,1,0,"Option 2",50,NA,NA,NA,1,"Choose",10,0.555555555555556,0.833333333333333,15,0.833333333333333,27,"College/Sixth Form (A level or equivalent)","""White""","Atheist","Female",48,54,0,1,9,8,5,5,27,3,13853.58,2,"Competative","Individual",7,2,8,5,5,3,"Individual",2
"139","56026b1ce372c00011bd45f6","Competative",13,1579.81000002474,0,1,"Option 2",50,NA,NA,NA,1,"Choose",10,0.555555555555556,0.769230769230769,15,0.833333333333333,27,"College/Sixth Form (A level or equivalent)","""White""","Atheist","Female",48,54,0,1,9,8,5,5,27,3,13853.58,1,"Competative","Individual",10,6,8,2,6,4,"Competative",3
"140","56026b1ce372c00011bd45f6","Competative",14,1239.75999990944,1,0,"Option 1",50,NA,NA,NA,1,"Choose",11,0.611111111111111,0.785714285714286,15,0.833333333333333,27,"College/Sixth Form (A level or equivalent)","""White""","Atheist","Female",48,54,0,1,9,8,5,5,27,3,13853.58,1,"Prosocial","Individual",7,7,10,5,0,5,"Prosocial",1
"141","56026b1ce372c00011bd45f6","Competative",15,1504.33500006329,1,0,"Option 2",50,NA,NA,NA,1,"Choose",12,0.666666666666667,0.8,15,0.833333333333333,27,"College/Sixth Form (A level or equivalent)","""White""","Atheist","Female",48,54,0,1,9,8,5,5,27,3,13853.58,2,"Competative","Prosocial",9,5,9,9,0,4,"Prosocial",1
"142","56026b1ce372c00011bd45f6","Competative",16,2754.57499991171,1,0,"Option 2",50,NA,NA,NA,1,"Choose",13,0.722222222222222,0.8125,15,0.833333333333333,27,"College/Sixth Form (A level or equivalent)","""White""","Atheist","Female",48,54,0,1,9,8,5,5,27,3,13853.58,2,"Competative","Individual",8,2,9,5,6,4,"Individual",2
"143","56026b1ce372c00011bd45f6","Competative",17,1283.91500003636,1,0,"Option 1",50,NA,NA,NA,1,"Choose",14,0.777777777777778,0.823529411764706,15,0.833333333333333,27,"College/Sixth Form (A level or equivalent)","""White""","Atheist","Female",48,54,0,1,9,8,5,5,27,3,13853.58,1,"Prosocial","Individual",6,6,10,5,0,5,"Prosocial",1
"144","56026b1ce372c00011bd45f6","Competative",18,1784.09500000998,1,0,"Option 2",50,NA,NA,NA,1,"Choose",15,0.833333333333333,0.833333333333333,15,0.833333333333333,27,"College/Sixth Form (A level or equivalent)","""White""","Atheist","Female",48,54,0,1,9,8,5,5,27,3,13853.58,2,"Individual","Prosocial",12,5,8,8,0,7,"Prosocial",1
"145","560aef7d01c38a00127693d3","Prosocial",1,5591.4000000048,0,1,"Option 2",14,NA,NA,NA,0,"Choose",0,0,0,2,0.111111111111111,30,"Undergraduate Degree (e.g. BSc; MBBS)","English/Welsh/Scottish/Northern Irish/British","Atheist","Male",36,49,5,15,1,3,2,2,8,1,13285.94,1,"Competative","Individual",7,2,8,5,5,3,"Competative",3
"146","560aef7d01c38a00127693d3","Prosocial",2,1971.56999999424,0,1,"Option 1",14,NA,NA,NA,0,"Choose",0,0,0,2,0.111111111111111,30,"Undergraduate Degree (e.g. BSc; MBBS)","English/Welsh/Scottish/Northern Irish/British","Atheist","Male",36,49,5,15,1,3,2,2,8,1,13285.94,2,"Prosocial","Competative",7,7,7,2,0,5,"Competative",3
"147","560aef7d01c38a00127693d3","Prosocial",3,3048.3799999929,1,0,"Option 2",14,NA,NA,NA,0,"Choose",1,0.0555555555555556,0.333333333333333,2,0.111111111111111,30,"Undergraduate Degree (e.g. BSc; MBBS)","English/Welsh/Scottish/Northern Irish/British","Atheist","Male",36,49,5,15,1,3,2,2,8,1,13285.94,2,"Competative","Individual",10,6,8,2,6,4,"Individual",2
"148","560aef7d01c38a00127693d3","Prosocial",4,5821.24499999918,0,1,"Option 1",14,NA,NA,NA,0,"Choose",1,0.0555555555555556,0.25,2,0.111111111111111,30,"Undergraduate Degree (e.g. BSc; MBBS)","English/Welsh/Scottish/Northern Irish/British","Atheist","Male",36,49,5,15,1,3,2,2,8,1,13285.94,2,"Prosocial","Competative",6,6,6,2,0,4,"Competative",3
"149","560aef7d01c38a00127693d3","Prosocial",5,4790.73500001687,0,1,"Option 2",14,NA,NA,NA,0,"Choose",1,0.0555555555555556,0.2,2,0.111111111111111,30,"Undergraduate Degree (e.g. BSc; MBBS)","English/Welsh/Scottish/Northern Irish/British","Atheist","Male",36,49,5,15,1,3,2,2,8,1,13285.94,1,"Individual","Prosocial",12,5,8,8,0,7,"Individual",2
"150","560aef7d01c38a00127693d3","Prosocial",6,2390.03499998944,0,1,"Option 2",14,NA,NA,NA,0,"Choose",1,0.0555555555555556,0.166666666666667,2,0.111111111111111,30,"Undergraduate Degree (e.g. BSc; MBBS)","English/Welsh/Scottish/Northern Irish/British","Atheist","Male",36,49,5,15,1,3,2,2,8,1,13285.94,1,"Competative","Individual",8,2,9,5,6,4,"Competative",3
"151","560aef7d01c38a00127693d3","Prosocial",7,2752.15499999467,0,1,"Option 2",14,NA,NA,NA,0,"Choose",1,0.0555555555555556,0.142857142857143,2,0.111111111111111,30,"Undergraduate Degree (e.g. BSc; MBBS)","English/Welsh/Scottish/Northern Irish/British","Atheist","Male",36,49,5,15,1,3,2,2,8,1,13285.94,1,"Individual","Prosocial",12,5,10,10,0,7,"Individual",2
"152","560aef7d01c38a00127693d3","Prosocial",8,2061.58000000869,0,1,"Option 1",14,NA,NA,NA,0,"Choose",1,0.0555555555555556,0.125,2,0.111111111111111,30,"Undergraduate Degree (e.g. BSc; MBBS)","English/Welsh/Scottish/Northern Irish/British","Atheist","Male",36,49,5,15,1,3,2,2,8,1,13285.94,2,"Prosocial","Individual",7,7,10,5,0,5,"Individual",2
"153","560aef7d01c38a00127693d3","Prosocial",9,4448.36999999825,1,0,"Option 2",14,NA,NA,NA,0,"Choose",2,0.111111111111111,0.222222222222222,2,0.111111111111111,30,"Undergraduate Degree (e.g. BSc; MBBS)","English/Welsh/Scottish/Northern Irish/British","Atheist","Male",36,49,5,15,1,3,2,2,8,1,13285.94,2,"Competative","Individual",11,6,9,2,7,5,"Individual",2
"154","560aef7d01c38a00127693d3","Prosocial",10,1887.04999999027,0,1,"Option 1",14,NA,NA,NA,0,"Choose",2,0.111111111111111,0.2,2,0.111111111111111,30,"Undergraduate Degree (e.g. BSc; MBBS)","English/Welsh/Scottish/Northern Irish/British","Atheist","Male",36,49,5,15,1,3,2,2,8,1,13285.94,2,"Prosocial","Individual",8,8,10,5,0,5,"Individual",2
"155","560aef7d01c38a00127693d3","Prosocial",11,1364.89499997697,0,1,"Option 1",14,NA,NA,NA,0,"Choose",2,0.111111111111111,0.181818181818182,2,0.111111111111111,30,"Undergraduate Degree (e.g. BSc; MBBS)","English/Welsh/Scottish/Northern Irish/British","Atheist","Male",36,49,5,15,1,3,2,2,8,1,13285.94,2,"Prosocial","Individual",6,6,10,5,0,5,"Individual",2
"156","560aef7d01c38a00127693d3","Prosocial",12,1522.02000000398,0,1,"Option 2",14,NA,NA,NA,0,"Choose",2,0.111111111111111,0.166666666666667,2,0.111111111111111,30,"Undergraduate Degree (e.g. BSc; MBBS)","English/Welsh/Scottish/Northern Irish/British","Atheist","Male",36,49,5,15,1,3,2,2,8,1,13285.94,1,"Competative","Prosocial",8,5,8,8,0,3,"Competative",3
"157","560aef7d01c38a00127693d3","Prosocial",13,2111.83999999776,0,1,"Option 2",14,NA,NA,NA,0,"Choose",2,0.111111111111111,0.153846153846154,2,0.111111111111111,30,"Undergraduate Degree (e.g. BSc; MBBS)","English/Welsh/Scottish/Northern Irish/British","Atheist","Male",36,49,5,15,1,3,2,2,8,1,13285.94,1,"Competative","Individual",6,2,8,5,4,3,"Competative",3
"158","560aef7d01c38a00127693d3","Prosocial",14,3710.37500002421,0,1,"Option 2",14,NA,NA,NA,0,"Choose",2,0.111111111111111,0.142857142857143,2,0.111111111111111,30,"Undergraduate Degree (e.g. BSc; MBBS)","English/Welsh/Scottish/Northern Irish/British","Atheist","Male",36,49,5,15,1,3,2,2,8,1,13285.94,1,"Competative","Individual",12,6,10,2,8,6,"Competative",3
"159","560aef7d01c38a00127693d3","Prosocial",15,2553.35500001092,0,1,"Option 2",14,NA,NA,NA,0,"Choose",2,0.111111111111111,0.133333333333333,2,0.111111111111111,30,"Undergraduate Degree (e.g. BSc; MBBS)","English/Welsh/Scottish/Northern Irish/British","Atheist","Male",36,49,5,15,1,3,2,2,8,1,13285.94,1,"Competative","Prosocial",10,5,10,10,0,5,"Competative",3
"160","560aef7d01c38a00127693d3","Prosocial",16,1513.5049999808,0,1,"Option 2",14,NA,NA,NA,0,"Choose",2,0.111111111111111,0.125,2,0.111111111111111,30,"Undergraduate Degree (e.g. BSc; MBBS)","English/Welsh/Scottish/Northern Irish/British","Atheist","Male",36,49,5,15,1,3,2,2,8,1,13285.94,1,"Competative","Prosocial",9,5,9,9,0,4,"Competative",3
"161","560aef7d01c38a00127693d3","Prosocial",17,1166.70000000158,0,1,"Option 1",14,NA,NA,NA,0,"Choose",2,0.111111111111111,0.117647058823529,2,0.111111111111111,30,"Undergraduate Degree (e.g. BSc; MBBS)","English/Welsh/Scottish/Northern Irish/British","Atheist","Male",36,49,5,15,1,3,2,2,8,1,13285.94,2,"Prosocial","Competative",8,8,8,2,0,6,"Competative",3
"162","560aef7d01c38a00127693d3","Prosocial",18,1114.44999999367,0,1,"Option 2",14,NA,NA,NA,0,"Choose",2,0.111111111111111,0.111111111111111,2,0.111111111111111,30,"Undergraduate Degree (e.g. BSc; MBBS)","English/Welsh/Scottish/Northern Irish/British","Atheist","Male",36,49,5,15,1,3,2,2,8,1,13285.94,1,"Individual","Prosocial",12,5,9,9,0,7,"Individual",2
"163","5687d434369319000c269c03","Prosocial",1,3145,0,1,"Option 2",79,NA,NA,NA,1,"Choose",0,0,0,15,0.833333333333333,48,"Undergraduate Degree (e.g. BSc; MBBS)","""White""","Agnostic","Female",36,53,4,3,7,3,4,5,19,4,30930.6,1,"Competative","Individual",12,6,10,2,8,6,"Competative",3
"164","5687d434369319000c269c03","Prosocial",2,1552,1,0,"Option 1",79,NA,NA,NA,1,"Choose",1,0.0555555555555556,0.5,15,0.833333333333333,48,"Undergraduate Degree (e.g. BSc; MBBS)","""White""","Agnostic","Female",36,53,4,3,7,3,4,5,19,4,30930.6,1,"Prosocial","Competative",7,7,7,2,0,5,"Prosocial",1
"165","5687d434369319000c269c03","Prosocial",3,2157,1,0,"Option 2",79,NA,NA,NA,1,"Choose",2,0.111111111111111,0.666666666666667,15,0.833333333333333,48,"Undergraduate Degree (e.g. BSc; MBBS)","""White""","Agnostic","Female",36,53,4,3,7,3,4,5,19,4,30930.6,2,"Individual","Prosocial",12,5,10,10,0,7,"Prosocial",1
"166","5687d434369319000c269c03","Prosocial",4,2141,1,0,"Option 2",79,NA,NA,NA,1,"Choose",3,0.166666666666667,0.75,15,0.833333333333333,48,"Undergraduate Degree (e.g. BSc; MBBS)","""White""","Agnostic","Female",36,53,4,3,7,3,4,5,19,4,30930.6,2,"Individual","Prosocial",12,5,9,9,0,7,"Prosocial",1
"167","5687d434369319000c269c03","Prosocial",5,1154,1,0,"Option 2",79,NA,NA,NA,1,"Choose",4,0.222222222222222,0.8,15,0.833333333333333,48,"Undergraduate Degree (e.g. BSc; MBBS)","""White""","Agnostic","Female",36,53,4,3,7,3,4,5,19,4,30930.6,2,"Competative","Prosocial",9,5,9,9,0,4,"Prosocial",1
"168","5687d434369319000c269c03","Prosocial",6,1948,1,0,"Option 2",79,NA,NA,NA,1,"Choose",5,0.277777777777778,0.833333333333333,15,0.833333333333333,48,"Undergraduate Degree (e.g. BSc; MBBS)","""White""","Agnostic","Female",36,53,4,3,7,3,4,5,19,4,30930.6,2,"Competative","Individual",6,2,8,5,4,3,"Individual",2
"169","5687d434369319000c269c03","Prosocial",7,1429,1,0,"Option 2",79,NA,NA,NA,1,"Choose",6,0.333333333333333,0.857142857142857,15,0.833333333333333,48,"Undergraduate Degree (e.g. BSc; MBBS)","""White""","Agnostic","Female",36,53,4,3,7,3,4,5,19,4,30930.6,2,"Competative","Prosocial",8,5,8,8,0,3,"Prosocial",1
"170","5687d434369319000c269c03","Prosocial",8,2370,1,0,"Option 1",79,NA,NA,NA,1,"Choose",7,0.388888888888889,0.875,15,0.833333333333333,48,"Undergraduate Degree (e.g. BSc; MBBS)","""White""","Agnostic","Female",36,53,4,3,7,3,4,5,19,4,30930.6,1,"Prosocial","Individual",7,7,10,5,0,5,"Prosocial",1
"171","5687d434369319000c269c03","Prosocial",9,1894,0,1,"Option 2",79,NA,NA,NA,1,"Choose",7,0.388888888888889,0.777777777777778,15,0.833333333333333,48,"Undergraduate Degree (e.g. BSc; MBBS)","""White""","Agnostic","Female",36,53,4,3,7,3,4,5,19,4,30930.6,1,"Competative","Individual",11,6,9,2,7,5,"Competative",3
"172","5687d434369319000c269c03","Prosocial",10,2118,1,0,"Option 2",79,NA,NA,NA,1,"Choose",8,0.444444444444444,0.8,15,0.833333333333333,48,"Undergraduate Degree (e.g. BSc; MBBS)","""White""","Agnostic","Female",36,53,4,3,7,3,4,5,19,4,30930.6,2,"Competative","Individual",7,2,8,5,5,3,"Individual",2
"173","5687d434369319000c269c03","Prosocial",11,1639,1,0,"Option 1",79,NA,NA,NA,1,"Choose",9,0.5,0.818181818181818,15,0.833333333333333,48,"Undergraduate Degree (e.g. BSc; MBBS)","""White""","Agnostic","Female",36,53,4,3,7,3,4,5,19,4,30930.6,1,"Prosocial","Individual",8,8,10,5,0,5,"Prosocial",1
"174","5687d434369319000c269c03","Prosocial",12,1742,1,0,"Option 2",79,NA,NA,NA,1,"Choose",10,0.555555555555556,0.833333333333333,15,0.833333333333333,48,"Undergraduate Degree (e.g. BSc; MBBS)","""White""","Agnostic","Female",36,53,4,3,7,3,4,5,19,4,30930.6,2,"Individual","Prosocial",12,5,8,8,0,7,"Prosocial",1
"175","5687d434369319000c269c03","Prosocial",13,2829,1,0,"Option 1",79,NA,NA,NA,1,"Choose",11,0.611111111111111,0.846153846153846,15,0.833333333333333,48,"Undergraduate Degree (e.g. BSc; MBBS)","""White""","Agnostic","Female",36,53,4,3,7,3,4,5,19,4,30930.6,1,"Prosocial","Competative",8,8,8,2,0,6,"Prosocial",1
"176","5687d434369319000c269c03","Prosocial",14,1294,1,0,"Option 2",79,NA,NA,NA,1,"Choose",12,0.666666666666667,0.857142857142857,15,0.833333333333333,48,"Undergraduate Degree (e.g. BSc; MBBS)","""White""","Agnostic","Female",36,53,4,3,7,3,4,5,19,4,30930.6,2,"Competative","Prosocial",10,5,10,10,0,5,"Prosocial",1
"177","5687d434369319000c269c03","Prosocial",15,1907,1,0,"Option 1",79,NA,NA,NA,1,"Choose",13,0.722222222222222,0.866666666666667,15,0.833333333333333,48,"Undergraduate Degree (e.g. BSc; MBBS)","""White""","Agnostic","Female",36,53,4,3,7,3,4,5,19,4,30930.6,1,"Prosocial","Individual",6,6,10,5,0,5,"Prosocial",1
"178","5687d434369319000c269c03","Prosocial",16,997,1,0,"Option 1",79,NA,NA,NA,1,"Choose",14,0.777777777777778,0.875,15,0.833333333333333,48,"Undergraduate Degree (e.g. BSc; MBBS)","""White""","Agnostic","Female",36,53,4,3,7,3,4,5,19,4,30930.6,1,"Prosocial","Competative",6,6,6,2,0,4,"Prosocial",1
"179","5687d434369319000c269c03","Prosocial",17,2068,0,1,"Option 2",79,NA,NA,NA,1,"Choose",14,0.777777777777778,0.823529411764706,15,0.833333333333333,48,"Undergraduate Degree (e.g. BSc; MBBS)","""White""","Agnostic","Female",36,53,4,3,7,3,4,5,19,4,30930.6,1,"Competative","Individual",10,6,8,2,6,4,"Competative",3
"180","5687d434369319000c269c03","Prosocial",18,2304,1,0,"Option 2",79,NA,NA,NA,1,"Choose",15,0.833333333333333,0.833333333333333,15,0.833333333333333,48,"Undergraduate Degree (e.g. BSc; MBBS)","""White""","Agnostic","Female",36,53,4,3,7,3,4,5,19,4,30930.6,2,"Competative","Individual",8,2,9,5,6,4,"Individual",2
"181","56c64cb9305eaa000af2b7e4","Competative",1,5152.78499998385,1,0,"Option 2",43,NA,NA,NA,1,"Choose",1,0.0555555555555556,1,15,0.833333333333333,39,"Doctoral Degree (e.g. PhD; DClinPsy)","English/Welsh/Scottish/Northern Irish/British","Other (please specify)","Female",68,68,0,3,4,3,7,1,15,8,118586.79,2,"Competative","Prosocial",10,5,10,10,0,5,"Prosocial",1
"182","56c64cb9305eaa000af2b7e4","Competative",2,3005.59999997495,1,0,"Option 1",43,NA,NA,NA,1,"Choose",2,0.111111111111111,1,15,0.833333333333333,39,"Doctoral Degree (e.g. PhD; DClinPsy)","English/Welsh/Scottish/Northern Irish/British","Other (please specify)","Female",68,68,0,3,4,3,7,1,15,8,118586.79,1,"Prosocial","Competative",7,7,7,2,0,5,"Prosocial",1
"183","56c64cb9305eaa000af2b7e4","Competative",3,3838.21499999613,1,0,"Option 1",43,NA,NA,NA,1,"Choose",3,0.166666666666667,1,15,0.833333333333333,39,"Doctoral Degree (e.g. PhD; DClinPsy)","English/Welsh/Scottish/Northern Irish/British","Other (please specify)","Female",68,68,0,3,4,3,7,1,15,8,118586.79,1,"Prosocial","Individual",7,7,10,5,0,5,"Prosocial",1
"184","56c64cb9305eaa000af2b7e4","Competative",4,2750.2300000051,1,0,"Option 2",43,NA,NA,NA,1,"Choose",4,0.222222222222222,1,15,0.833333333333333,39,"Doctoral Degree (e.g. PhD; DClinPsy)","English/Welsh/Scottish/Northern Irish/British","Other (please specify)","Female",68,68,0,3,4,3,7,1,15,8,118586.79,2,"Individual","Prosocial",12,5,8,8,0,7,"Prosocial",1
"185","56c64cb9305eaa000af2b7e4","Competative",5,6372.08000000101,1,0,"Option 2",43,NA,NA,NA,1,"Choose",5,0.277777777777778,1,15,0.833333333333333,39,"Doctoral Degree (e.g. PhD; DClinPsy)","English/Welsh/Scottish/Northern Irish/British","Other (please specify)","Female",68,68,0,3,4,3,7,1,15,8,118586.79,2,"Competative","Individual",8,2,9,5,6,4,"Individual",2
"186","56c64cb9305eaa000af2b7e4","Competative",6,3130.97500000731,1,0,"Option 1",43,NA,NA,NA,1,"Choose",6,0.333333333333333,1,15,0.833333333333333,39,"Doctoral Degree (e.g. PhD; DClinPsy)","English/Welsh/Scottish/Northern Irish/British","Other (please specify)","Female",68,68,0,3,4,3,7,1,15,8,118586.79,1,"Prosocial","Individual",6,6,10,5,0,5,"Prosocial",1
"187","56c64cb9305eaa000af2b7e4","Competative",7,1060.9950000071,1,0,"Option 1",43,NA,NA,NA,1,"Choose",7,0.388888888888889,1,15,0.833333333333333,39,"Doctoral Degree (e.g. PhD; DClinPsy)","English/Welsh/Scottish/Northern Irish/British","Other (please specify)","Female",68,68,0,3,4,3,7,1,15,8,118586.79,1,"Prosocial","Competative",8,8,8,2,0,6,"Prosocial",1
"188","56c64cb9305eaa000af2b7e4","Competative",8,1823.07499999297,1,0,"Option 2",43,NA,NA,NA,1,"Choose",8,0.444444444444444,1,15,0.833333333333333,39,"Doctoral Degree (e.g. PhD; DClinPsy)","English/Welsh/Scottish/Northern Irish/British","Other (please specify)","Female",68,68,0,3,4,3,7,1,15,8,118586.79,2,"Competative","Prosocial",8,5,8,8,0,3,"Prosocial",1
"189","56c64cb9305eaa000af2b7e4","Competative",9,8954.4149999856,1,0,"Option 2",43,NA,NA,NA,1,"Choose",9,0.5,1,15,0.833333333333333,39,"Doctoral Degree (e.g. PhD; DClinPsy)","English/Welsh/Scottish/Northern Irish/British","Other (please specify)","Female",68,68,0,3,4,3,7,1,15,8,118586.79,2,"Competative","Individual",6,2,8,5,4,3,"Individual",2
"190","56c64cb9305eaa000af2b7e4","Competative",10,3736.10999999801,1,0,"Option 2",43,NA,NA,NA,1,"Choose",10,0.555555555555556,1,15,0.833333333333333,39,"Doctoral Degree (e.g. PhD; DClinPsy)","English/Welsh/Scottish/Northern Irish/British","Other (please specify)","Female",68,68,0,3,4,3,7,1,15,8,118586.79,2,"Competative","Prosocial",9,5,9,9,0,4,"Prosocial",1
"191","56c64cb9305eaa000af2b7e4","Competative",11,1246.50999999722,1,0,"Option 1",43,NA,NA,NA,1,"Choose",11,0.611111111111111,1,15,0.833333333333333,39,"Doctoral Degree (e.g. PhD; DClinPsy)","English/Welsh/Scottish/Northern Irish/British","Other (please specify)","Female",68,68,0,3,4,3,7,1,15,8,118586.79,1,"Prosocial","Competative",6,6,6,2,0,4,"Prosocial",1
"192","56c64cb9305eaa000af2b7e4","Competative",12,1121.89000000944,1,0,"Option 1",43,NA,NA,NA,1,"Choose",12,0.666666666666667,1,15,0.833333333333333,39,"Doctoral Degree (e.g. PhD; DClinPsy)","English/Welsh/Scottish/Northern Irish/British","Other (please specify)","Female",68,68,0,3,4,3,7,1,15,8,118586.79,1,"Prosocial","Individual",8,8,10,5,0,5,"Prosocial",1
"193","56c64cb9305eaa000af2b7e4","Competative",13,2597.47999999672,1,0,"Option 2",43,NA,NA,NA,1,"Choose",13,0.722222222222222,1,15,0.833333333333333,39,"Doctoral Degree (e.g. PhD; DClinPsy)","English/Welsh/Scottish/Northern Irish/British","Other (please specify)","Female",68,68,0,3,4,3,7,1,15,8,118586.79,2,"Individual","Prosocial",12,5,10,10,0,7,"Prosocial",1
"194","56c64cb9305eaa000af2b7e4","Competative",14,3309.61499997647,1,0,"Option 2",43,NA,NA,NA,1,"Choose",14,0.777777777777778,1,15,0.833333333333333,39,"Doctoral Degree (e.g. PhD; DClinPsy)","English/Welsh/Scottish/Northern Irish/British","Other (please specify)","Female",68,68,0,3,4,3,7,1,15,8,118586.79,2,"Competative","Individual",7,2,8,5,5,3,"Individual",2
"195","56c64cb9305eaa000af2b7e4","Competative",15,4961.98500000173,0,1,"Option 2",43,NA,NA,NA,1,"Choose",14,0.777777777777778,0.933333333333333,15,0.833333333333333,39,"Doctoral Degree (e.g. PhD; DClinPsy)","English/Welsh/Scottish/Northern Irish/British","Other (please specify)","Female",68,68,0,3,4,3,7,1,15,8,118586.79,1,"Competative","Individual",12,6,10,2,8,6,"Competative",3
"196","56c64cb9305eaa000af2b7e4","Competative",16,3246.39499999466,1,0,"Option 2",43,NA,NA,NA,1,"Choose",15,0.833333333333333,0.9375,15,0.833333333333333,39,"Doctoral Degree (e.g. PhD; DClinPsy)","English/Welsh/Scottish/Northern Irish/British","Other (please specify)","Female",68,68,0,3,4,3,7,1,15,8,118586.79,2,"Individual","Prosocial",12,5,9,9,0,7,"Prosocial",1
"197","56c64cb9305eaa000af2b7e4","Competative",17,3930.78500000411,0,1,"Option 2",43,NA,NA,NA,1,"Choose",15,0.833333333333333,0.882352941176471,15,0.833333333333333,39,"Doctoral Degree (e.g. PhD; DClinPsy)","English/Welsh/Scottish/Northern Irish/British","Other (please specify)","Female",68,68,0,3,4,3,7,1,15,8,118586.79,1,"Competative","Individual",10,6,8,2,6,4,"Competative",3
"198","56c64cb9305eaa000af2b7e4","Competative",18,2883.62500001676,0,1,"Option 2",43,NA,NA,NA,1,"Choose",15,0.833333333333333,0.833333333333333,15,0.833333333333333,39,"Doctoral Degree (e.g. PhD; DClinPsy)","English/Welsh/Scottish/Northern Irish/British","Other (please specify)","Female",68,68,0,3,4,3,7,1,15,8,118586.79,1,"Competative","Individual",11,6,9,2,7,5,"Competative",3
"199","56c81007ba8e37000d7b211e","Competative",1,5832,0,1,"Option 2",29,NA,NA,NA,1,"Choose",0,0,0,13,0.722222222222222,46,"Undergraduate Degree (e.g. BSc; MBBS)","""White""","Other (please specify)","Female",39,33,1,3,5,1,5,7,18,6,10721.4,1,"Competative","Individual",12,6,10,2,8,6,"Competative",3
"200","56c81007ba8e37000d7b211e","Competative",2,3374,0,1,"Option 2",29,NA,NA,NA,1,"Choose",0,0,0,13,0.722222222222222,46,"Undergraduate Degree (e.g. BSc; MBBS)","""White""","Other (please specify)","Female",39,33,1,3,5,1,5,7,18,6,10721.4,1,"Competative","Individual",8,2,9,5,6,4,"Competative",3
"201","56c81007ba8e37000d7b211e","Competative",3,3286,0,1,"Option 2",29,NA,NA,NA,1,"Choose",0,0,0,13,0.722222222222222,46,"Undergraduate Degree (e.g. BSc; MBBS)","""White""","Other (please specify)","Female",39,33,1,3,5,1,5,7,18,6,10721.4,1,"Competative","Individual",11,6,9,2,7,5,"Competative",3
"202","56c81007ba8e37000d7b211e","Competative",4,1497.99999999999,1,0,"Option 2",29,NA,NA,NA,1,"Choose",1,0.0555555555555556,0.25,13,0.722222222222222,46,"Undergraduate Degree (e.g. BSc; MBBS)","""White""","Other (please specify)","Female",39,33,1,3,5,1,5,7,18,6,10721.4,2,"Competative","Prosocial",9,5,9,9,0,4,"Prosocial",1
"203","56c81007ba8e37000d7b211e","Competative",5,2754,0,1,"Option 1",29,NA,NA,NA,1,"Choose",1,0.0555555555555556,0.2,13,0.722222222222222,46,"Undergraduate Degree (e.g. BSc; MBBS)","""White""","Other (please specify)","Female",39,33,1,3,5,1,5,7,18,6,10721.4,2,"Prosocial","Individual",6,6,10,5,0,5,"Individual",2
"204","56c81007ba8e37000d7b211e","Competative",6,1680,1,0,"Option 2",29,NA,NA,NA,1,"Choose",2,0.111111111111111,0.333333333333333,13,0.722222222222222,46,"Undergraduate Degree (e.g. BSc; MBBS)","""White""","Other (please specify)","Female",39,33,1,3,5,1,5,7,18,6,10721.4,2,"Competative","Individual",6,2,8,5,4,3,"Individual",2
"205","56c81007ba8e37000d7b211e","Competative",7,1058.99999999999,1,0,"Option 1",29,NA,NA,NA,1,"Choose",3,0.166666666666667,0.428571428571429,13,0.722222222222222,46,"Undergraduate Degree (e.g. BSc; MBBS)","""White""","Other (please specify)","Female",39,33,1,3,5,1,5,7,18,6,10721.4,1,"Prosocial","Competative",6,6,6,2,0,4,"Prosocial",1
"206","56c81007ba8e37000d7b211e","Competative",8,1725,1,0,"Option 2",29,NA,NA,NA,1,"Choose",4,0.222222222222222,0.5,13,0.722222222222222,46,"Undergraduate Degree (e.g. BSc; MBBS)","""White""","Other (please specify)","Female",39,33,1,3,5,1,5,7,18,6,10721.4,2,"Competative","Individual",7,2,8,5,5,3,"Individual",2
"207","56c81007ba8e37000d7b211e","Competative",9,2406.00000000001,1,0,"Option 2",29,NA,NA,NA,1,"Choose",5,0.277777777777778,0.555555555555556,13,0.722222222222222,46,"Undergraduate Degree (e.g. BSc; MBBS)","""White""","Other (please specify)","Female",39,33,1,3,5,1,5,7,18,6,10721.4,2,"Individual","Prosocial",12,5,8,8,0,7,"Prosocial",1
"208","56c81007ba8e37000d7b211e","Competative",10,1258,1,0,"Option 1",29,NA,NA,NA,1,"Choose",6,0.333333333333333,0.6,13,0.722222222222222,46,"Undergraduate Degree (e.g. BSc; MBBS)","""White""","Other (please specify)","Female",39,33,1,3,5,1,5,7,18,6,10721.4,1,"Prosocial","Competative",7,7,7,2,0,5,"Prosocial",1
"209","56c81007ba8e37000d7b211e","Competative",11,1924,1,0,"Option 2",29,NA,NA,NA,1,"Choose",7,0.388888888888889,0.636363636363636,13,0.722222222222222,46,"Undergraduate Degree (e.g. BSc; MBBS)","""White""","Other (please specify)","Female",39,33,1,3,5,1,5,7,18,6,10721.4,2,"Individual","Prosocial",12,5,9,9,0,7,"Prosocial",1
"210","56c81007ba8e37000d7b211e","Competative",12,906,1,0,"Option 2",29,NA,NA,NA,1,"Choose",8,0.444444444444444,0.666666666666667,13,0.722222222222222,46,"Undergraduate Degree (e.g. BSc; MBBS)","""White""","Other (please specify)","Female",39,33,1,3,5,1,5,7,18,6,10721.4,2,"Competative","Prosocial",10,5,10,10,0,5,"Prosocial",1
"211","56c81007ba8e37000d7b211e","Competative",13,2156,0,1,"Option 2",29,NA,NA,NA,1,"Choose",8,0.444444444444444,0.615384615384615,13,0.722222222222222,46,"Undergraduate Degree (e.g. BSc; MBBS)","""White""","Other (please specify)","Female",39,33,1,3,5,1,5,7,18,6,10721.4,1,"Competative","Individual",10,6,8,2,6,4,"Competative",3
"212","56c81007ba8e37000d7b211e","Competative",14,933,1,0,"Option 2",29,NA,NA,NA,1,"Choose",9,0.5,0.642857142857143,13,0.722222222222222,46,"Undergraduate Degree (e.g. BSc; MBBS)","""White""","Other (please specify)","Female",39,33,1,3,5,1,5,7,18,6,10721.4,2,"Individual","Prosocial",12,5,10,10,0,7,"Prosocial",1
"213","56c81007ba8e37000d7b211e","Competative",15,958,1,0,"Option 2",29,NA,NA,NA,1,"Choose",10,0.555555555555556,0.666666666666667,13,0.722222222222222,46,"Undergraduate Degree (e.g. BSc; MBBS)","""White""","Other (please specify)","Female",39,33,1,3,5,1,5,7,18,6,10721.4,2,"Competative","Prosocial",8,5,8,8,0,3,"Prosocial",1
"214","56c81007ba8e37000d7b211e","Competative",16,1618,1,0,"Option 1",29,NA,NA,NA,1,"Choose",11,0.611111111111111,0.6875,13,0.722222222222222,46,"Undergraduate Degree (e.g. BSc; MBBS)","""White""","Other (please specify)","Female",39,33,1,3,5,1,5,7,18,6,10721.4,1,"Prosocial","Individual",7,7,10,5,0,5,"Prosocial",1
"215","56c81007ba8e37000d7b211e","Competative",17,664,1,0,"Option 1",29,NA,NA,NA,1,"Choose",12,0.666666666666667,0.705882352941177,13,0.722222222222222,46,"Undergraduate Degree (e.g. BSc; MBBS)","""White""","Other (please specify)","Female",39,33,1,3,5,1,5,7,18,6,10721.4,1,"Prosocial","Competative",8,8,8,2,0,6,"Prosocial",1
"216","56c81007ba8e37000d7b211e","Competative",18,1773,1,0,"Option 1",29,NA,NA,NA,1,"Choose",13,0.722222222222222,0.722222222222222,13,0.722222222222222,46,"Undergraduate Degree (e.g. BSc; MBBS)","""White""","Other (please specify)","Female",39,33,1,3,5,1,5,7,18,6,10721.4,1,"Prosocial","Individual",8,8,10,5,0,5,"Prosocial",1
"217","56fc108ff37e08000cbea340","Competative",1,10025,1,0,"Option 2",92,NA,NA,NA,0,"Choose",1,0.0555555555555556,1,15,0.833333333333333,74,"Secondary School (GCSE or equivalent)","English/Welsh/Scottish/Northern Irish/British","Buddhist","Male",69,77,0,0,0,5,3,3,11,4,50568.5,2,"Competative","Individual",6,2,8,5,4,3,"Individual",2
"218","56fc108ff37e08000cbea340","Competative",2,6091,1,0,"Option 2",92,NA,NA,NA,0,"Choose",2,0.111111111111111,1,15,0.833333333333333,74,"Secondary School (GCSE or equivalent)","English/Welsh/Scottish/Northern Irish/British","Buddhist","Male",69,77,0,0,0,5,3,3,11,4,50568.5,2,"Competative","Individual",7,2,8,5,5,3,"Individual",2
"219","56fc108ff37e08000cbea340","Competative",3,3792,1,0,"Option 2",92,NA,NA,NA,0,"Choose",3,0.166666666666667,1,15,0.833333333333333,74,"Secondary School (GCSE or equivalent)","English/Welsh/Scottish/Northern Irish/British","Buddhist","Male",69,77,0,0,0,5,3,3,11,4,50568.5,2,"Competative","Prosocial",8,5,8,8,0,3,"Prosocial",1
"220","56fc108ff37e08000cbea340","Competative",4,2628,1,0,"Option 1",92,NA,NA,NA,0,"Choose",4,0.222222222222222,1,15,0.833333333333333,74,"Secondary School (GCSE or equivalent)","English/Welsh/Scottish/Northern Irish/British","Buddhist","Male",69,77,0,0,0,5,3,3,11,4,50568.5,1,"Prosocial","Individual",8,8,10,5,0,5,"Prosocial",1
"221","56fc108ff37e08000cbea340","Competative",5,1919,1,0,"Option 2",92,NA,NA,NA,0,"Choose",5,0.277777777777778,1,15,0.833333333333333,74,"Secondary School (GCSE or equivalent)","English/Welsh/Scottish/Northern Irish/British","Buddhist","Male",69,77,0,0,0,5,3,3,11,4,50568.5,2,"Individual","Prosocial",12,5,9,9,0,7,"Prosocial",1
"222","56fc108ff37e08000cbea340","Competative",6,1651,1,0,"Option 1",92,NA,NA,NA,0,"Choose",6,0.333333333333333,1,15,0.833333333333333,74,"Secondary School (GCSE or equivalent)","English/Welsh/Scottish/Northern Irish/British","Buddhist","Male",69,77,0,0,0,5,3,3,11,4,50568.5,1,"Prosocial","Competative",8,8,8,2,0,6,"Prosocial",1
"223","56fc108ff37e08000cbea340","Competative",7,1886,1,0,"Option 2",92,NA,NA,NA,0,"Choose",7,0.388888888888889,1,15,0.833333333333333,74,"Secondary School (GCSE or equivalent)","English/Welsh/Scottish/Northern Irish/British","Buddhist","Male",69,77,0,0,0,5,3,3,11,4,50568.5,2,"Individual","Prosocial",12,5,8,8,0,7,"Prosocial",1
"224","56fc108ff37e08000cbea340","Competative",8,1542,1,0,"Option 2",92,NA,NA,NA,0,"Choose",8,0.444444444444444,1,15,0.833333333333333,74,"Secondary School (GCSE or equivalent)","English/Welsh/Scottish/Northern Irish/British","Buddhist","Male",69,77,0,0,0,5,3,3,11,4,50568.5,2,"Individual","Prosocial",12,5,10,10,0,7,"Prosocial",1
"225","56fc108ff37e08000cbea340","Competative",9,1775,1,0,"Option 2",92,NA,NA,NA,0,"Choose",9,0.5,1,15,0.833333333333333,74,"Secondary School (GCSE or equivalent)","English/Welsh/Scottish/Northern Irish/British","Buddhist","Male",69,77,0,0,0,5,3,3,11,4,50568.5,2,"Competative","Prosocial",10,5,10,10,0,5,"Prosocial",1
"226","56fc108ff37e08000cbea340","Competative",10,5959,0,1,"Option 2",92,NA,NA,NA,0,"Choose",9,0.5,0.9,15,0.833333333333333,74,"Secondary School (GCSE or equivalent)","English/Welsh/Scottish/Northern Irish/British","Buddhist","Male",69,77,0,0,0,5,3,3,11,4,50568.5,1,"Competative","Individual",10,6,8,2,6,4,"Competative",3
"227","56fc108ff37e08000cbea340","Competative",11,1703,1,0,"Option 1",92,NA,NA,NA,0,"Choose",10,0.555555555555556,0.909090909090909,15,0.833333333333333,74,"Secondary School (GCSE or equivalent)","English/Welsh/Scottish/Northern Irish/British","Buddhist","Male",69,77,0,0,0,5,3,3,11,4,50568.5,1,"Prosocial","Competative",6,6,6,2,0,4,"Prosocial",1
"228","56fc108ff37e08000cbea340","Competative",12,3514,0,1,"Option 2",92,NA,NA,NA,0,"Choose",10,0.555555555555556,0.833333333333333,15,0.833333333333333,74,"Secondary School (GCSE or equivalent)","English/Welsh/Scottish/Northern Irish/British","Buddhist","Male",69,77,0,0,0,5,3,3,11,4,50568.5,1,"Competative","Individual",11,6,9,2,7,5,"Competative",3
"229","56fc108ff37e08000cbea340","Competative",13,2074,1,0,"Option 2",92,NA,NA,NA,0,"Choose",11,0.611111111111111,0.846153846153846,15,0.833333333333333,74,"Secondary School (GCSE or equivalent)","English/Welsh/Scottish/Northern Irish/British","Buddhist","Male",69,77,0,0,0,5,3,3,11,4,50568.5,2,"Competative","Individual",8,2,9,5,6,4,"Individual",2
"230","56fc108ff37e08000cbea340","Competative",14,2195,1,0,"Option 2",92,NA,NA,NA,0,"Choose",12,0.666666666666667,0.857142857142857,15,0.833333333333333,74,"Secondary School (GCSE or equivalent)","English/Welsh/Scottish/Northern Irish/British","Buddhist","Male",69,77,0,0,0,5,3,3,11,4,50568.5,2,"Competative","Prosocial",9,5,9,9,0,4,"Prosocial",1
"231","56fc108ff37e08000cbea340","Competative",15,1853,1,0,"Option 1",92,NA,NA,NA,0,"Choose",13,0.722222222222222,0.866666666666667,15,0.833333333333333,74,"Secondary School (GCSE or equivalent)","English/Welsh/Scottish/Northern Irish/British","Buddhist","Male",69,77,0,0,0,5,3,3,11,4,50568.5,1,"Prosocial","Competative",7,7,7,2,0,5,"Prosocial",1
"232","56fc108ff37e08000cbea340","Competative",16,1378,1,0,"Option 1",92,NA,NA,NA,0,"Choose",14,0.777777777777778,0.875,15,0.833333333333333,74,"Secondary School (GCSE or equivalent)","English/Welsh/Scottish/Northern Irish/British","Buddhist","Male",69,77,0,0,0,5,3,3,11,4,50568.5,1,"Prosocial","Individual",6,6,10,5,0,5,"Prosocial",1
"233","56fc108ff37e08000cbea340","Competative",17,4749,0,1,"Option 2",92,NA,NA,NA,0,"Choose",14,0.777777777777778,0.823529411764706,15,0.833333333333333,74,"Secondary School (GCSE or equivalent)","English/Welsh/Scottish/Northern Irish/British","Buddhist","Male",69,77,0,0,0,5,3,3,11,4,50568.5,1,"Competative","Individual",12,6,10,2,8,6,"Competative",3
"234","56fc108ff37e08000cbea340","Competative",18,1184,1,0,"Option 1",92,NA,NA,NA,0,"Choose",15,0.833333333333333,0.833333333333333,15,0.833333333333333,74,"Secondary School (GCSE or equivalent)","English/Welsh/Scottish/Northern Irish/British","Buddhist","Male",69,77,0,0,0,5,3,3,11,4,50568.5,1,"Prosocial","Individual",7,7,10,5,0,5,"Prosocial",1
"235","570ce93891c7b5000e005a0e","Competative",1,2500.36500004353,0,1,"Option 1",3,NA,NA,NA,1,"Choose",0,0,0,4,0.222222222222222,41,"Secondary School (GCSE or equivalent)","English/Welsh/Scottish/Northern Irish/British","Christian","Female",15,16,1,5,3,4,4,2,13,7,31663.73,2,"Prosocial","Individual",6,6,10,5,0,5,"Individual",2
"236","570ce93891c7b5000e005a0e","Competative",2,3336.03999996558,1,0,"Option 2",3,NA,NA,NA,1,"Choose",1,0.0555555555555556,0.5,4,0.222222222222222,41,"Secondary School (GCSE or equivalent)","English/Welsh/Scottish/Northern Irish/British","Christian","Female",15,16,1,5,3,4,4,2,13,7,31663.73,2,"Competative","Individual",6,2,8,5,4,3,"Individual",2
"237","570ce93891c7b5000e005a0e","Competative",3,1534.97999999672,0,1,"Option 1",3,NA,NA,NA,1,"Choose",1,0.0555555555555556,0.333333333333333,4,0.222222222222222,41,"Secondary School (GCSE or equivalent)","English/Welsh/Scottish/Northern Irish/British","Christian","Female",15,16,1,5,3,4,4,2,13,7,31663.73,2,"Prosocial","Individual",8,8,10,5,0,5,"Individual",2
"238","570ce93891c7b5000e005a0e","Competative",4,1682.16999998549,1,0,"Option 2",3,NA,NA,NA,1,"Choose",2,0.111111111111111,0.5,4,0.222222222222222,41,"Secondary School (GCSE or equivalent)","English/Welsh/Scottish/Northern Irish/British","Christian","Female",15,16,1,5,3,4,4,2,13,7,31663.73,2,"Competative","Individual",8,2,9,5,6,4,"Individual",2
"239","570ce93891c7b5000e005a0e","Competative",5,3403.18999998271,0,1,"Option 2",3,NA,NA,NA,1,"Choose",2,0.111111111111111,0.4,4,0.222222222222222,41,"Secondary School (GCSE or equivalent)","English/Welsh/Scottish/Northern Irish/British","Christian","Female",15,16,1,5,3,4,4,2,13,7,31663.73,1,"Individual","Prosocial",12,5,9,9,0,7,"Individual",2
"240","570ce93891c7b5000e005a0e","Competative",6,1470.56500002509,0,1,"Option 2",3,NA,NA,NA,1,"Choose",2,0.111111111111111,0.333333333333333,4,0.222222222222222,41,"Secondary School (GCSE or equivalent)","English/Welsh/Scottish/Northern Irish/British","Christian","Female",15,16,1,5,3,4,4,2,13,7,31663.73,1,"Competative","Individual",10,6,8,2,6,4,"Competative",3
"241","570ce93891c7b5000e005a0e","Competative",7,2253.70500003919,0,1,"Option 1",3,NA,NA,NA,1,"Choose",2,0.111111111111111,0.285714285714286,4,0.222222222222222,41,"Secondary School (GCSE or equivalent)","English/Welsh/Scottish/Northern Irish/British","Christian","Female",15,16,1,5,3,4,4,2,13,7,31663.73,2,"Prosocial","Competative",7,7,7,2,0,5,"Competative",3
"242","570ce93891c7b5000e005a0e","Competative",8,1449.3449999718,0,1,"Option 2",3,NA,NA,NA,1,"Choose",2,0.111111111111111,0.25,4,0.222222222222222,41,"Secondary School (GCSE or equivalent)","English/Welsh/Scottish/Northern Irish/British","Christian","Female",15,16,1,5,3,4,4,2,13,7,31663.73,1,"Individual","Prosocial",12,5,8,8,0,7,"Individual",2
"243","570ce93891c7b5000e005a0e","Competative",9,2842.2900000005,0,1,"Option 2",3,NA,NA,NA,1,"Choose",2,0.111111111111111,0.222222222222222,4,0.222222222222222,41,"Secondary School (GCSE or equivalent)","English/Welsh/Scottish/Northern Irish/British","Christian","Female",15,16,1,5,3,4,4,2,13,7,31663.73,1,"Competative","Prosocial",9,5,9,9,0,4,"Competative",3
"244","570ce93891c7b5000e005a0e","Competative",10,4261.65000000037,0,1,"Option 2",3,NA,NA,NA,1,"Choose",2,0.111111111111111,0.2,4,0.222222222222222,41,"Secondary School (GCSE or equivalent)","English/Welsh/Scottish/Northern Irish/British","Christian","Female",15,16,1,5,3,4,4,2,13,7,31663.73,1,"Competative","Individual",7,2,8,5,5,3,"Competative",3
"245","570ce93891c7b5000e005a0e","Competative",11,3254.10999997985,1,0,"Option 2",3,NA,NA,NA,1,"Choose",3,0.166666666666667,0.272727272727273,4,0.222222222222222,41,"Secondary School (GCSE or equivalent)","English/Welsh/Scottish/Northern Irish/British","Christian","Female",15,16,1,5,3,4,4,2,13,7,31663.73,2,"Competative","Individual",12,6,10,2,8,6,"Individual",2
"246","570ce93891c7b5000e005a0e","Competative",12,1238.20500000147,0,1,"Option 2",3,NA,NA,NA,1,"Choose",3,0.166666666666667,0.25,4,0.222222222222222,41,"Secondary School (GCSE or equivalent)","English/Welsh/Scottish/Northern Irish/British","Christian","Female",15,16,1,5,3,4,4,2,13,7,31663.73,1,"Competative","Prosocial",10,5,10,10,0,5,"Competative",3
"247","570ce93891c7b5000e005a0e","Competative",13,2214.81999999378,0,1,"Option 1",3,NA,NA,NA,1,"Choose",3,0.166666666666667,0.230769230769231,4,0.222222222222222,41,"Secondary School (GCSE or equivalent)","English/Welsh/Scottish/Northern Irish/British","Christian","Female",15,16,1,5,3,4,4,2,13,7,31663.73,2,"Prosocial","Competative",8,8,8,2,0,6,"Competative",3
"248","570ce93891c7b5000e005a0e","Competative",14,2010.26499998989,0,1,"Option 2",3,NA,NA,NA,1,"Choose",3,0.166666666666667,0.214285714285714,4,0.222222222222222,41,"Secondary School (GCSE or equivalent)","English/Welsh/Scottish/Northern Irish/British","Christian","Female",15,16,1,5,3,4,4,2,13,7,31663.73,1,"Competative","Prosocial",8,5,8,8,0,3,"Competative",3
"249","570ce93891c7b5000e005a0e","Competative",15,1963.7249999796,0,1,"Option 1",3,NA,NA,NA,1,"Choose",3,0.166666666666667,0.2,4,0.222222222222222,41,"Secondary School (GCSE or equivalent)","English/Welsh/Scottish/Northern Irish/British","Christian","Female",15,16,1,5,3,4,4,2,13,7,31663.73,2,"Prosocial","Competative",6,6,6,2,0,4,"Competative",3
"250","570ce93891c7b5000e005a0e","Competative",16,2274.06999998493,0,1,"Option 2",3,NA,NA,NA,1,"Choose",3,0.166666666666667,0.1875,4,0.222222222222222,41,"Secondary School (GCSE or equivalent)","English/Welsh/Scottish/Northern Irish/British","Christian","Female",15,16,1,5,3,4,4,2,13,7,31663.73,1,"Individual","Prosocial",12,5,10,10,0,7,"Individual",2
"251","570ce93891c7b5000e005a0e","Competative",17,4240.89999997523,1,0,"Option 2",3,NA,NA,NA,1,"Choose",4,0.222222222222222,0.235294117647059,4,0.222222222222222,41,"Secondary School (GCSE or equivalent)","English/Welsh/Scottish/Northern Irish/British","Christian","Female",15,16,1,5,3,4,4,2,13,7,31663.73,2,"Competative","Individual",11,6,9,2,7,5,"Individual",2
"252","570ce93891c7b5000e005a0e","Competative",18,3246.81000004057,0,1,"Option 1",3,NA,NA,NA,1,"Choose",4,0.222222222222222,0.222222222222222,4,0.222222222222222,41,"Secondary School (GCSE or equivalent)","English/Welsh/Scottish/Northern Irish/British","Christian","Female",15,16,1,5,3,4,4,2,13,7,31663.73,2,"Prosocial","Individual",7,7,10,5,0,5,"Individual",2
"253","571de7af13b1b70009be2f26","Prosocial",1,3473.70500001125,1,0,"Option 2",35,NA,NA,NA,1,"Choose",1,0.0555555555555556,1,12,0.666666666666667,60,"Doctoral Degree (e.g. PhD; DClinPsy)","English/Welsh/Scottish/Northern Irish/British","Christian","Female",51,58,0,0,2,4,4,8,18,4,28957.12,2,"Individual","Prosocial",12,5,10,10,0,7,"Prosocial",1
"254","571de7af13b1b70009be2f26","Prosocial",2,7087.29499997571,0,1,"Option 2",35,NA,NA,NA,1,"Choose",1,0.0555555555555556,0.5,12,0.666666666666667,60,"Doctoral Degree (e.g. PhD; DClinPsy)","English/Welsh/Scottish/Northern Irish/British","Christian","Female",51,58,0,0,2,4,4,8,18,4,28957.12,1,"Competative","Individual",11,6,9,2,7,5,"Competative",3
"255","571de7af13b1b70009be2f26","Prosocial",3,2836.93999995012,1,0,"Option 1",35,NA,NA,NA,1,"Choose",2,0.111111111111111,0.666666666666667,12,0.666666666666667,60,"Doctoral Degree (e.g. PhD; DClinPsy)","English/Welsh/Scottish/Northern Irish/British","Christian","Female",51,58,0,0,2,4,4,8,18,4,28957.12,1,"Prosocial","Competative",7,7,7,2,0,5,"Prosocial",1
"256","571de7af13b1b70009be2f26","Prosocial",4,4157.85499999765,1,0,"Option 2",35,NA,NA,NA,1,"Choose",3,0.166666666666667,0.75,12,0.666666666666667,60,"Doctoral Degree (e.g. PhD; DClinPsy)","English/Welsh/Scottish/Northern Irish/British","Christian","Female",51,58,0,0,2,4,4,8,18,4,28957.12,2,"Competative","Individual",6,2,8,5,4,3,"Individual",2
"257","571de7af13b1b70009be2f26","Prosocial",5,6799.32499991264,0,1,"Option 2",35,NA,NA,NA,1,"Choose",3,0.166666666666667,0.6,12,0.666666666666667,60,"Doctoral Degree (e.g. PhD; DClinPsy)","English/Welsh/Scottish/Northern Irish/British","Christian","Female",51,58,0,0,2,4,4,8,18,4,28957.12,1,"Individual","Prosocial",12,5,9,9,0,7,"Individual",2
"258","571de7af13b1b70009be2f26","Prosocial",6,3458.1050000852,1,0,"Option 1",35,NA,NA,NA,1,"Choose",4,0.222222222222222,0.666666666666667,12,0.666666666666667,60,"Doctoral Degree (e.g. PhD; DClinPsy)","English/Welsh/Scottish/Northern Irish/British","Christian","Female",51,58,0,0,2,4,4,8,18,4,28957.12,1,"Prosocial","Competative",6,6,6,2,0,4,"Prosocial",1
"259","571de7af13b1b70009be2f26","Prosocial",7,4346.23000002466,0,1,"Option 2",35,NA,NA,NA,1,"Choose",4,0.222222222222222,0.571428571428571,12,0.666666666666667,60,"Doctoral Degree (e.g. PhD; DClinPsy)","English/Welsh/Scottish/Northern Irish/British","Christian","Female",51,58,0,0,2,4,4,8,18,4,28957.12,1,"Individual","Prosocial",12,5,8,8,0,7,"Individual",2
"260","571de7af13b1b70009be2f26","Prosocial",8,3037.18999994453,1,0,"Option 2",35,NA,NA,NA,1,"Choose",5,0.277777777777778,0.625,12,0.666666666666667,60,"Doctoral Degree (e.g. PhD; DClinPsy)","English/Welsh/Scottish/Northern Irish/British","Christian","Female",51,58,0,0,2,4,4,8,18,4,28957.12,2,"Competative","Prosocial",10,5,10,10,0,5,"Prosocial",1
"261","571de7af13b1b70009be2f26","Prosocial",9,5197.34000007156,1,0,"Option 1",35,NA,NA,NA,1,"Choose",6,0.333333333333333,0.666666666666667,12,0.666666666666667,60,"Doctoral Degree (e.g. PhD; DClinPsy)","English/Welsh/Scottish/Northern Irish/British","Christian","Female",51,58,0,0,2,4,4,8,18,4,28957.12,1,"Prosocial","Individual",7,7,10,5,0,5,"Prosocial",1
"262","571de7af13b1b70009be2f26","Prosocial",10,1582.71999994759,1,0,"Option 1",35,NA,NA,NA,1,"Choose",7,0.388888888888889,0.7,12,0.666666666666667,60,"Doctoral Degree (e.g. PhD; DClinPsy)","English/Welsh/Scottish/Northern Irish/British","Christian","Female",51,58,0,0,2,4,4,8,18,4,28957.12,1,"Prosocial","Competative",8,8,8,2,0,6,"Prosocial",1
"263","571de7af13b1b70009be2f26","Prosocial",11,4180.96499994863,0,1,"Option 2",35,NA,NA,NA,1,"Choose",7,0.388888888888889,0.636363636363636,12,0.666666666666667,60,"Doctoral Degree (e.g. PhD; DClinPsy)","English/Welsh/Scottish/Northern Irish/British","Christian","Female",51,58,0,0,2,4,4,8,18,4,28957.12,1,"Competative","Individual",12,6,10,2,8,6,"Competative",3
"264","571de7af13b1b70009be2f26","Prosocial",12,3609.32000004686,1,0,"Option 2",35,NA,NA,NA,1,"Choose",8,0.444444444444444,0.666666666666667,12,0.666666666666667,60,"Doctoral Degree (e.g. PhD; DClinPsy)","English/Welsh/Scottish/Northern Irish/British","Christian","Female",51,58,0,0,2,4,4,8,18,4,28957.12,2,"Competative","Prosocial",8,5,8,8,0,3,"Prosocial",1
"265","571de7af13b1b70009be2f26","Prosocial",13,5649.34499992523,0,1,"Option 1",35,NA,NA,NA,1,"Choose",8,0.444444444444444,0.615384615384615,12,0.666666666666667,60,"Doctoral Degree (e.g. PhD; DClinPsy)","English/Welsh/Scottish/Northern Irish/British","Christian","Female",51,58,0,0,2,4,4,8,18,4,28957.12,2,"Prosocial","Individual",6,6,10,5,0,5,"Individual",2
"266","571de7af13b1b70009be2f26","Prosocial",14,3511.77500002086,1,0,"Option 2",35,NA,NA,NA,1,"Choose",9,0.5,0.642857142857143,12,0.666666666666667,60,"Doctoral Degree (e.g. PhD; DClinPsy)","English/Welsh/Scottish/Northern Irish/British","Christian","Female",51,58,0,0,2,4,4,8,18,4,28957.12,2,"Competative","Individual",7,2,8,5,5,3,"Individual",2
"267","571de7af13b1b70009be2f26","Prosocial",15,3201.13499998115,1,0,"Option 1",35,NA,NA,NA,1,"Choose",10,0.555555555555556,0.666666666666667,12,0.666666666666667,60,"Doctoral Degree (e.g. PhD; DClinPsy)","English/Welsh/Scottish/Northern Irish/British","Christian","Female",51,58,0,0,2,4,4,8,18,4,28957.12,1,"Prosocial","Individual",8,8,10,5,0,5,"Prosocial",1
"268","571de7af13b1b70009be2f26","Prosocial",16,2529.82499997597,0,1,"Option 2",35,NA,NA,NA,1,"Choose",10,0.555555555555556,0.625,12,0.666666666666667,60,"Doctoral Degree (e.g. PhD; DClinPsy)","English/Welsh/Scottish/Northern Irish/British","Christian","Female",51,58,0,0,2,4,4,8,18,4,28957.12,1,"Competative","Individual",10,6,8,2,6,4,"Competative",3
"269","571de7af13b1b70009be2f26","Prosocial",17,1891.31000009365,1,0,"Option 2",35,NA,NA,NA,1,"Choose",11,0.611111111111111,0.647058823529412,12,0.666666666666667,60,"Doctoral Degree (e.g. PhD; DClinPsy)","English/Welsh/Scottish/Northern Irish/British","Christian","Female",51,58,0,0,2,4,4,8,18,4,28957.12,2,"Competative","Prosocial",9,5,9,9,0,4,"Prosocial",1
"270","571de7af13b1b70009be2f26","Prosocial",18,3224.06000003684,1,0,"Option 2",35,NA,NA,NA,1,"Choose",12,0.666666666666667,0.666666666666667,12,0.666666666666667,60,"Doctoral Degree (e.g. PhD; DClinPsy)","English/Welsh/Scottish/Northern Irish/British","Christian","Female",51,58,0,0,2,4,4,8,18,4,28957.12,2,"Competative","Individual",8,2,9,5,6,4,"Individual",2
"271","5744bbe15e549100063b08cb","Competative",1,3137.2350000001,0,1,"Option 1",74,NA,NA,NA,1,"Choose",0,0,0,9,0.5,30,"Undergraduate Degree (e.g. BSc; MBBS)","English/Welsh/Scottish/Northern Irish/British","Atheist","Female",37,54,2,8,9,6,8,7,30,3,16868.03,2,"Prosocial","Individual",7,7,10,5,0,5,"Individual",2
"272","5744bbe15e549100063b08cb","Competative",2,2686.7349999994,1,0,"Option 2",74,NA,NA,NA,1,"Choose",1,0.0555555555555556,0.5,9,0.5,30,"Undergraduate Degree (e.g. BSc; MBBS)","English/Welsh/Scottish/Northern Irish/British","Atheist","Female",37,54,2,8,9,6,8,7,30,3,16868.03,2,"Competative","Individual",8,2,9,5,6,4,"Individual",2
"273","5744bbe15e549100063b08cb","Competative",3,1817.11999999965,0,1,"Option 2",74,NA,NA,NA,1,"Choose",1,0.0555555555555556,0.333333333333333,9,0.5,30,"Undergraduate Degree (e.g. BSc; MBBS)","English/Welsh/Scottish/Northern Irish/British","Atheist","Female",37,54,2,8,9,6,8,7,30,3,16868.03,1,"Individual","Prosocial",12,5,10,10,0,7,"Individual",2
"274","5744bbe15e549100063b08cb","Competative",4,774.540000000503,1,0,"Option 1",74,NA,NA,NA,1,"Choose",2,0.111111111111111,0.5,9,0.5,30,"Undergraduate Degree (e.g. BSc; MBBS)","English/Welsh/Scottish/Northern Irish/British","Atheist","Female",37,54,2,8,9,6,8,7,30,3,16868.03,1,"Prosocial","Competative",6,6,6,2,0,4,"Prosocial",1
"275","5744bbe15e549100063b08cb","Competative",5,1081.47500000009,0,1,"Option 2",74,NA,NA,NA,1,"Choose",2,0.111111111111111,0.4,9,0.5,30,"Undergraduate Degree (e.g. BSc; MBBS)","English/Welsh/Scottish/Northern Irish/British","Atheist","Female",37,54,2,8,9,6,8,7,30,3,16868.03,1,"Competative","Individual",12,6,10,2,8,6,"Competative",3
"276","5744bbe15e549100063b08cb","Competative",6,1561.4850000001,0,1,"Option 2",74,NA,NA,NA,1,"Choose",2,0.111111111111111,0.333333333333333,9,0.5,30,"Undergraduate Degree (e.g. BSc; MBBS)","English/Welsh/Scottish/Northern Irish/British","Atheist","Female",37,54,2,8,9,6,8,7,30,3,16868.03,1,"Competative","Individual",10,6,8,2,6,4,"Competative",3
"277","5744bbe15e549100063b08cb","Competative",7,700.449999999488,0,1,"Option 2",74,NA,NA,NA,1,"Choose",2,0.111111111111111,0.285714285714286,9,0.5,30,"Undergraduate Degree (e.g. BSc; MBBS)","English/Welsh/Scottish/Northern Irish/British","Atheist","Female",37,54,2,8,9,6,8,7,30,3,16868.03,1,"Individual","Prosocial",12,5,8,8,0,7,"Individual",2
"278","5744bbe15e549100063b08cb","Competative",8,964.395000000019,1,0,"Option 2",74,NA,NA,NA,1,"Choose",3,0.166666666666667,0.375,9,0.5,30,"Undergraduate Degree (e.g. BSc; MBBS)","English/Welsh/Scottish/Northern Irish/British","Atheist","Female",37,54,2,8,9,6,8,7,30,3,16868.03,2,"Competative","Individual",6,2,8,5,4,3,"Individual",2
"279","5744bbe15e549100063b08cb","Competative",9,1439.39999999921,1,0,"Option 2",74,NA,NA,NA,1,"Choose",4,0.222222222222222,0.444444444444444,9,0.5,30,"Undergraduate Degree (e.g. BSc; MBBS)","English/Welsh/Scottish/Northern Irish/British","Atheist","Female",37,54,2,8,9,6,8,7,30,3,16868.03,2,"Competative","Prosocial",10,5,10,10,0,5,"Prosocial",1
"280","5744bbe15e549100063b08cb","Competative",10,1927.47000000067,1,0,"Option 1",74,NA,NA,NA,1,"Choose",5,0.277777777777778,0.5,9,0.5,30,"Undergraduate Degree (e.g. BSc; MBBS)","English/Welsh/Scottish/Northern Irish/British","Atheist","Female",37,54,2,8,9,6,8,7,30,3,16868.03,1,"Prosocial","Competative",7,7,7,2,0,5,"Prosocial",1
"281","5744bbe15e549100063b08cb","Competative",11,1672.25999999931,0,1,"Option 2",74,NA,NA,NA,1,"Choose",5,0.277777777777778,0.454545454545455,9,0.5,30,"Undergraduate Degree (e.g. BSc; MBBS)","English/Welsh/Scottish/Northern Irish/British","Atheist","Female",37,54,2,8,9,6,8,7,30,3,16868.03,1,"Individual","Prosocial",12,5,9,9,0,7,"Individual",2
"282","5744bbe15e549100063b08cb","Competative",12,1102.93999999971,1,0,"Option 2",74,NA,NA,NA,1,"Choose",6,0.333333333333333,0.5,9,0.5,30,"Undergraduate Degree (e.g. BSc; MBBS)","English/Welsh/Scottish/Northern Irish/British","Atheist","Female",37,54,2,8,9,6,8,7,30,3,16868.03,2,"Competative","Prosocial",9,5,9,9,0,4,"Prosocial",1
"283","5744bbe15e549100063b08cb","Competative",13,728.935000000056,0,1,"Option 1",74,NA,NA,NA,1,"Choose",6,0.333333333333333,0.461538461538462,9,0.5,30,"Undergraduate Degree (e.g. BSc; MBBS)","English/Welsh/Scottish/Northern Irish/British","Atheist","Female",37,54,2,8,9,6,8,7,30,3,16868.03,2,"Prosocial","Individual",6,6,10,5,0,5,"Individual",2
"284","5744bbe15e549100063b08cb","Competative",14,910.914999999339,1,0,"Option 1",74,NA,NA,NA,1,"Choose",7,0.388888888888889,0.5,9,0.5,30,"Undergraduate Degree (e.g. BSc; MBBS)","English/Welsh/Scottish/Northern Irish/British","Atheist","Female",37,54,2,8,9,6,8,7,30,3,16868.03,1,"Prosocial","Competative",8,8,8,2,0,6,"Prosocial",1
"285","5744bbe15e549100063b08cb","Competative",15,764.624999999767,0,1,"Option 2",74,NA,NA,NA,1,"Choose",7,0.388888888888889,0.466666666666667,9,0.5,30,"Undergraduate Degree (e.g. BSc; MBBS)","English/Welsh/Scottish/Northern Irish/British","Atheist","Female",37,54,2,8,9,6,8,7,30,3,16868.03,1,"Competative","Individual",11,6,9,2,7,5,"Competative",3
"286","5744bbe15e549100063b08cb","Competative",16,1034.86500000046,1,0,"Option 2",74,NA,NA,NA,1,"Choose",8,0.444444444444444,0.5,9,0.5,30,"Undergraduate Degree (e.g. BSc; MBBS)","English/Welsh/Scottish/Northern Irish/British","Atheist","Female",37,54,2,8,9,6,8,7,30,3,16868.03,2,"Competative","Prosocial",8,5,8,8,0,3,"Prosocial",1
"287","5744bbe15e549100063b08cb","Competative",17,846.925000000745,0,1,"Option 1",74,NA,NA,NA,1,"Choose",8,0.444444444444444,0.470588235294118,9,0.5,30,"Undergraduate Degree (e.g. BSc; MBBS)","English/Welsh/Scottish/Northern Irish/British","Atheist","Female",37,54,2,8,9,6,8,7,30,3,16868.03,2,"Prosocial","Individual",8,8,10,5,0,5,"Individual",2
"288","5744bbe15e549100063b08cb","Competative",18,616.320000000065,1,0,"Option 2",74,NA,NA,NA,1,"Choose",9,0.5,0.5,9,0.5,30,"Undergraduate Degree (e.g. BSc; MBBS)","English/Welsh/Scottish/Northern Irish/British","Atheist","Female",37,54,2,8,9,6,8,7,30,3,16868.03,2,"Competative","Individual",7,2,8,5,5,3,"Individual",2
"289","57611238eaf3f80007481e8e","Individualist",1,3160,1,0,"Option 1",71,NA,NA,NA,0,"Choose",1,0.0555555555555556,1,12,0.666666666666667,71,"College/Sixth Form (A level or equivalent)","""White""","Christian","Female",54,59,3,7,7,4,2,5,18,2,33582,1,"Prosocial","Individual",8,8,10,5,0,5,"Prosocial",1
"290","57611238eaf3f80007481e8e","Individualist",2,10570,1,0,"Option 2",71,NA,NA,NA,0,"Choose",2,0.111111111111111,1,12,0.666666666666667,71,"College/Sixth Form (A level or equivalent)","""White""","Christian","Female",54,59,3,7,7,4,2,5,18,2,33582,2,"Competative","Individual",10,6,8,2,6,4,"Individual",2
"291","57611238eaf3f80007481e8e","Individualist",3,1839,1,0,"Option 1",71,NA,NA,NA,0,"Choose",3,0.166666666666667,1,12,0.666666666666667,71,"College/Sixth Form (A level or equivalent)","""White""","Christian","Female",54,59,3,7,7,4,2,5,18,2,33582,1,"Prosocial","Individual",7,7,10,5,0,5,"Prosocial",1
"292","57611238eaf3f80007481e8e","Individualist",4,4527,0,1,"Option 2",71,NA,NA,NA,0,"Choose",3,0.166666666666667,0.75,12,0.666666666666667,71,"College/Sixth Form (A level or equivalent)","""White""","Christian","Female",54,59,3,7,7,4,2,5,18,2,33582,1,"Individual","Prosocial",12,5,8,8,0,7,"Individual",2
"293","57611238eaf3f80007481e8e","Individualist",5,6696,0,1,"Option 2",71,NA,NA,NA,0,"Choose",3,0.166666666666667,0.6,12,0.666666666666667,71,"College/Sixth Form (A level or equivalent)","""White""","Christian","Female",54,59,3,7,7,4,2,5,18,2,33582,1,"Competative","Individual",7,2,8,5,5,3,"Competative",3
"294","57611238eaf3f80007481e8e","Individualist",6,4342.99999999999,0,1,"Option 1",71,NA,NA,NA,0,"Choose",3,0.166666666666667,0.5,12,0.666666666666667,71,"College/Sixth Form (A level or equivalent)","""White""","Christian","Female",54,59,3,7,7,4,2,5,18,2,33582,2,"Prosocial","Competative",7,7,7,2,0,5,"Competative",3
"295","57611238eaf3f80007481e8e","Individualist",7,2595.99999999999,1,0,"Option 2",71,NA,NA,NA,0,"Choose",4,0.222222222222222,0.571428571428571,12,0.666666666666667,71,"College/Sixth Form (A level or equivalent)","""White""","Christian","Female",54,59,3,7,7,4,2,5,18,2,33582,2,"Competative","Individual",6,2,8,5,4,3,"Individual",2
