,ID,PartnerPolicy,Trial,Intentions_RT,Correct,Incorrect,Real_Answer,Agency,HI,SI,Final_Guess,Control,Game,CumulativeCor,Propab,Proprel,Sum,PercentageCor,Age,Education,Ethnicity,Religion,Sex,Persec,SocRef,ICARTot,ICARrt,Response,Type1,Type2,Option1_PPT,Option1_Partner,Option2_PPT,Option2_Partner,Diff1,Diff2,Choice,ChoiceAction,id
1,,Competative,1,2550.895,1,0,Option 1,3,NA,NA,NA,0,Choose,1,0.055555556,1,15,0.833333333,57,Undergraduate Degree (e.g. BSc; MBBS),English/Welsh/Scottish/Northern Irish/British,Spiritualist,Female,0,0,3,19427.39,1,Prosocial,Individual,8,8,10,5,0,5,Prosocial,1,1
2,,Competative,2,9468.275,1,0,Option 2,3,NA,NA,NA,0,Choose,2,0.111111111,1,15,0.833333333,57,Undergraduate Degree (e.g. BSc; MBBS),English/Welsh/Scottish/Northern Irish/British,Spiritualist,Female,0,0,3,19427.39,2,Individual,Prosocial,12,5,8,8,0,7,Prosocial,1,1
3,,Competative,3,5580.885,0,1,Option 2,3,NA,NA,NA,0,Choose,2,0.111111111,0.666666667,15,0.833333333,57,Undergraduate Degree (e.g. BSc; MBBS),English/Welsh/Scottish/Northern Irish/British,Spiritualist,Female,0,0,3,19427.39,1,Competative,Individual,10,6,8,2,6,4,Competative,3,1
4,,Competative,4,3610.2,0,1,Option 2,3,NA,NA,NA,0,Choose,2,0.111111111,0.5,15,0.833333333,57,Undergraduate Degree (e.g. BSc; MBBS),English/Welsh/Scottish/Northern Irish/British,Spiritualist,Female,0,0,3,19427.39,1,Competative,Individual,12,6,10,2,8,6,Competative,3,1
5,,Competative,5,2334.675,1,0,Option 2,3,NA,NA,NA,0,Choose,3,0.166666667,0.6,15,0.833333333,57,Undergraduate Degree (e.g. BSc; MBBS),English/Welsh/Scottish/Northern Irish/British,Spiritualist,Female,0,0,3,19427.39,2,Competative,Prosocial,9,5,9,9,0,4,Prosocial,1,1
6,,Competative,6,2392.835,1,0,Option 2,3,NA,NA,NA,0,Choose,4,0.222222222,0.666666667,15,0.833333333,57,Undergraduate Degree (e.g. BSc; MBBS),English/Welsh/Scottish/Northern Irish/British,Spiritualist,Female,0,0,3,19427.39,2,Individual,Prosocial,12,5,9,9,0,7,Prosocial,1,1
7,,Competative,7,2069.25,1,0,Option 1,3,NA,NA,NA,0,Choose,5,0.277777778,0.714285714,15,0.833333333,57,Undergraduate Degree (e.g. BSc; MBBS),English/Welsh/Scottish/Northern Irish/British,Spiritualist,Female,0,0,3,19427.39,1,Prosocial,Competative,8,8,8,2,0,6,Prosocial,1,1
8,,Competative,8,1453.11,1,0,Option 1,3,NA,NA,NA,0,Choose,6,0.333333333,0.75,15,0.833333333,57,Undergraduate Degree (e.g. BSc; MBBS),English/Welsh/Scottish/Northern Irish/British,Spiritualist,Female,0,0,3,19427.39,1,Prosocial,Competative,6,6,6,2,0,4,Prosocial,1,1
9,,Competative,9,1764.82,1,0,Option 1,3,NA,NA,NA,0,Choose,7,0.388888889,0.777777778,15,0.833333333,57,Undergraduate Degree (e.g. BSc; MBBS),English/Welsh/Scottish/Northern Irish/British,Spiritualist,Female,0,0,3,19427.39,1,Prosocial,Individual,6,6,10,5,0,5,Prosocial,1,1
10,,Competative,10,2956.915,1,0,Option 2,3,NA,NA,NA,0,Choose,8,0.444444444,0.8,15,0.833333333,57,Undergraduate Degree (e.g. BSc; MBBS),English/Welsh/Scottish/Northern Irish/British,Spiritualist,Female,0,0,3,19427.39,2,Competative,Individual,7,2,8,5,5,3,Individual,2,1
11,,Competative,11,1452.76,1,0,Option 2,3,NA,NA,NA,0,Choose,9,0.5,0.818181818,15,0.833333333,57,Undergraduate Degree (e.g. BSc; MBBS),English/Welsh/Scottish/Northern Irish/British,Spiritualist,Female,0,0,3,19427.39,2,Competative,Prosocial,10,5,10,10,0,5,Prosocial,1,1
12,,Competative,12,1842.83,1,0,Option 1,3,NA,NA,NA,0,Choose,10,0.555555556,0.833333333,15,0.833333333,57,Undergraduate Degree (e.g. BSc; MBBS),English/Welsh/Scottish/Northern Irish/British,Spiritualist,Female,0,0,3,19427.39,1,Prosocial,Competative,7,7,7,2,0,5,Prosocial,1,1
13,,Competative,13,2079.67,1,0,Option 2,3,NA,NA,NA,0,Choose,11,0.611111111,0.846153846,15,0.833333333,57,Undergraduate Degree (e.g. BSc; MBBS),English/Welsh/Scottish/Northern Irish/British,Spiritualist,Female,0,0,3,19427.39,2,Competative,Prosocial,8,5,8,8,0,3,Prosocial,1,1
14,,Competative,14,2352.455,1,0,Option 2,3,NA,NA,NA,0,Choose,12,0.666666667,0.857142857,15,0.833333333,57,Undergraduate Degree (e.g. BSc; MBBS),English/Welsh/Scottish/Northern Irish/British,Spiritualist,Female,0,0,3,19427.39,2,Competative,Individual,8,2,9,5,6,4,Individual,2,1
15,,Competative,15,1810.71,1,0,Option 2,3,NA,NA,NA,0,Choose,13,0.722222222,0.866666667,15,0.833333333,57,Undergraduate Degree (e.g. BSc; MBBS),English/Welsh/Scottish/Northern Irish/British,Spiritualist,Female,0,0,3,19427.39,2,Individual,Prosocial,12,5,10,10,0,7,Prosocial,1,1
16,,Competative,16,2162.505,0,1,Option 2,3,NA,NA,NA,0,Choose,13,0.722222222,0.8125,15,0.833333333,57,Undergraduate Degree (e.g. BSc; MBBS),English/Welsh/Scottish/Northern Irish/British,Spiritualist,Female,0,0,3,19427.39,1,Competative,Individual,11,6,9,2,7,5,Competative,3,1
17,,Competative,17,2571.84,1,0,Option 2,3,NA,NA,NA,0,Choose,14,0.777777778,0.823529412,15,0.833333333,57,Undergraduate Degree (e.g. BSc; MBBS),English/Welsh/Scottish/Northern Irish/British,Spiritualist,Female,0,0,3,19427.39,2,Competative,Individual,6,2,8,5,4,3,Individual,2,1
18,,Competative,18,1751.775,1,0,Option 1,3,NA,NA,NA,0,Choose,15,0.833333333,0.833333333,15,0.833333333,57,Undergraduate Degree (e.g. BSc; MBBS),English/Welsh/Scottish/Northern Irish/British,Spiritualist,Female,0,0,3,19427.39,1,Prosocial,Individual,7,7,10,5,0,5,Prosocial,1,1
19,,Prosocial,1,2103.035,0,1,Option 2,78,NA,NA,NA,1,Choose,0,0,0,9,0.5,31,College/Sixth Form (A level or equivalent),"""White""",Atheist,Female,17,28,3,7887.37,1,Competative,Individual,12,6,10,2,8,6,Competative,3,2
20,,Prosocial,2,1542.47,1,0,Option 1,78,NA,NA,NA,1,Choose,1,0.055555556,0.5,9,0.5,31,College/Sixth Form (A level or equivalent),"""White""",Atheist,Female,17,28,3,7887.37,1,Prosocial,Competative,8,8,8,2,0,6,Prosocial,1,2
21,,Prosocial,3,1205.185,0,1,Option 2,78,NA,NA,NA,1,Choose,1,0.055555556,0.333333333,9,0.5,31,College/Sixth Form (A level or equivalent),"""White""",Atheist,Female,17,28,3,7887.37,1,Individual,Prosocial,12,5,8,8,0,7,Individual,2,2
22,,Prosocial,4,1685.56,1,0,Option 1,78,NA,NA,NA,1,Choose,2,0.111111111,0.5,9,0.5,31,College/Sixth Form (A level or equivalent),"""White""",Atheist,Female,17,28,3,7887.37,1,Prosocial,Competative,6,6,6,2,0,4,Prosocial,1,2
23,,Prosocial,5,2007.515,1,0,Option 2,78,NA,NA,NA,1,Choose,3,0.166666667,0.6,9,0.5,31,College/Sixth Form (A level or equivalent),"""White""",Atheist,Female,17,28,3,7887.37,2,Competative,Individual,10,6,8,2,6,4,Individual,2,2
24,,Prosocial,6,2311.16,0,1,Option 2,78,NA,NA,NA,1,Choose,3,0.166666667,0.5,9,0.5,31,College/Sixth Form (A level or equivalent),"""White""",Atheist,Female,17,28,3,7887.37,1,Individual,Prosocial,12,5,9,9,0,7,Individual,2,2
25,,Prosocial,7,1507.445,0,1,Option 2,78,NA,NA,NA,1,Choose,3,0.166666667,0.428571429,9,0.5,31,College/Sixth Form (A level or equivalent),"""White""",Atheist,Female,17,28,3,7887.37,1,Competative,Prosocial,8,5,8,8,0,3,Competative,3,2
26,,Prosocial,8,1070.34,1,0,Option 1,78,NA,NA,NA,1,Choose,4,0.222222222,0.5,9,0.5,31,College/Sixth Form (A level or equivalent),"""White""",Atheist,Female,17,28,3,7887.37,1,Prosocial,Competative,7,7,7,2,0,5,Prosocial,1,2
27,,Prosocial,9,1222.705,1,0,Option 2,78,NA,NA,NA,1,Choose,5,0.277777778,0.555555556,9,0.5,31,College/Sixth Form (A level or equivalent),"""White""",Atheist,Female,17,28,3,7887.37,2,Competative,Individual,7,2,8,5,5,3,Individual,2,2
28,,Prosocial,10,1326.44,0,1,Option 2,78,NA,NA,NA,1,Choose,5,0.277777778,0.5,9,0.5,31,College/Sixth Form (A level or equivalent),"""White""",Atheist,Female,17,28,3,7887.37,1,Competative,Individual,11,6,9,2,7,5,Competative,3,2
29,,Prosocial,11,1767.235,1,0,Option 2,78,NA,NA,NA,1,Choose,6,0.333333333,0.545454545,9,0.5,31,College/Sixth Form (A level or equivalent),"""White""",Atheist,Female,17,28,3,7887.37,2,Competative,Prosocial,9,5,9,9,0,4,Prosocial,1,2
30,,Prosocial,12,1805.53,0,1,Option 1,78,NA,NA,NA,1,Choose,6,0.333333333,0.5,9,0.5,31,College/Sixth Form (A level or equivalent),"""White""",Atheist,Female,17,28,3,7887.37,2,Prosocial,Individual,7,7,10,5,0,5,Individual,2,2
31,,Prosocial,13,1380.755,1,0,Option 2,78,NA,NA,NA,1,Choose,7,0.388888889,0.538461538,9,0.5,31,College/Sixth Form (A level or equivalent),"""White""",Atheist,Female,17,28,3,7887.37,2,Competative,Individual,6,2,8,5,4,3,Individual,2,2
32,,Prosocial,14,1283,0,1,Option 1,78,NA,NA,NA,1,Choose,7,0.388888889,0.5,9,0.5,31,College/Sixth Form (A level or equivalent),"""White""",Atheist,Female,17,28,3,7887.37,2,Prosocial,Individual,8,8,10,5,0,5,Individual,2,2
33,,Prosocial,15,1028.795,0,1,Option 1,78,NA,NA,NA,1,Choose,7,0.388888889,0.466666667,9,0.5,31,College/Sixth Form (A level or equivalent),"""White""",Atheist,Female,17,28,3,7887.37,2,Prosocial,Individual,6,6,10,5,0,5,Individual,2,2
34,,Prosocial,16,1841.42,0,1,Option 2,78,NA,NA,NA,1,Choose,7,0.388888889,0.4375,9,0.5,31,College/Sixth Form (A level or equivalent),"""White""",Atheist,Female,17,28,3,7887.37,1,Individual,Prosocial,12,5,10,10,0,7,Individual,2,2
35,,Prosocial,17,1436.88,1,0,Option 2,78,NA,NA,NA,1,Choose,8,0.444444444,0.470588235,9,0.5,31,College/Sixth Form (A level or equivalent),"""White""",Atheist,Female,17,28,3,7887.37,2,Competative,Individual,8,2,9,5,6,4,Individual,2,2
36,,Prosocial,18,1233.395,1,0,Option 2,78,NA,NA,NA,1,Choose,9,0.5,0.5,9,0.5,31,College/Sixth Form (A level or equivalent),"""White""",Atheist,Female,17,28,3,7887.37,2,Competative,Prosocial,10,5,10,10,0,5,Prosocial,1,2
37,,Individualist,1,2312,1,0,Option 1,2,NA,NA,NA,1,Choose,1,0.055555556,1,8,0.444444444,38,Undergraduate Degree (e.g. BSc; MBBS),English/Welsh/Scottish/Northern Irish/British,Atheist,Female,20,22,3,20691,1,Prosocial,Individual,8,8,10,5,0,5,Prosocial,1,3
38,,Individualist,2,3832,1,0,Option 2,2,NA,NA,NA,1,Choose,2,0.111111111,1,8,0.444444444,38,Undergraduate Degree (e.g. BSc; MBBS),English/Welsh/Scottish/Northern Irish/British,Atheist,Female,20,22,3,20691,2,Individual,Prosocial,12,5,8,8,0,7,Prosocial,1,3
39,,Individualist,3,4840,0,1,Option 2,2,NA,NA,NA,1,Choose,2,0.111111111,0.666666667,8,0.444444444,38,Undergraduate Degree (e.g. BSc; MBBS),English/Welsh/Scottish/Northern Irish/British,Atheist,Female,20,22,3,20691,1,Competative,Individual,11,6,9,2,7,5,Competative,3,3
40,,Individualist,4,3846,0,1,Option 1,2,NA,NA,NA,1,Choose,2,0.111111111,0.5,8,0.444444444,38,Undergraduate Degree (e.g. BSc; MBBS),English/Welsh/Scottish/Northern Irish/British,Atheist,Female,20,22,3,20691,2,Prosocial,Individual,6,6,10,5,0,5,Individual,2,3
41,,Individualist,5,2903,1,0,Option 2,2,NA,NA,NA,1,Choose,3,0.166666667,0.6,8,0.444444444,38,Undergraduate Degree (e.g. BSc; MBBS),English/Welsh/Scottish/Northern Irish/British,Atheist,Female,20,22,3,20691,2,Competative,Prosocial,10,5,10,10,0,5,Prosocial,1,3
42,,Individualist,6,7759,0,1,Option 2,2,NA,NA,NA,1,Choose,3,0.166666667,0.5,8,0.444444444,38,Undergraduate Degree (e.g. BSc; MBBS),English/Welsh/Scottish/Northern Irish/British,Atheist,Female,20,22,3,20691,1,Competative,Individual,10,6,8,2,6,4,Competative,3,3
43,,Individualist,7,3925,0,1,Option 2,2,NA,NA,NA,1,Choose,3,0.166666667,0.428571429,8,0.444444444,38,Undergraduate Degree (e.g. BSc; MBBS),English/Welsh/Scottish/Northern Irish/British,Atheist,Female,20,22,3,20691,1,Individual,Prosocial,12,5,9,9,0,7,Individual,2,3
44,,Individualist,8,3613,1,0,Option 2,2,NA,NA,NA,1,Choose,4,0.222222222,0.5,8,0.444444444,38,Undergraduate Degree (e.g. BSc; MBBS),English/Welsh/Scottish/Northern Irish/British,Atheist,Female,20,22,3,20691,2,Competative,Individual,7,2,8,5,5,3,Individual,2,3
45,,Individualist,9,4279,1,0,Option 2,2,NA,NA,NA,1,Choose,5,0.277777778,0.555555556,8,0.444444444,38,Undergraduate Degree (e.g. BSc; MBBS),English/Welsh/Scottish/Northern Irish/British,Atheist,Female,20,22,3,20691,2,Competative,Individual,6,2,8,5,4,3,Individual,2,3
46,,Individualist,10,3020,0,1,Option 1,2,NA,NA,NA,1,Choose,5,0.277777778,0.5,8,0.444444444,38,Undergraduate Degree (e.g. BSc; MBBS),English/Welsh/Scottish/Northern Irish/British,Atheist,Female,20,22,3,20691,2,Prosocial,Competative,7,7,7,2,0,5,Competative,3,3
47,,Individualist,11,4204,0,1,Option 1,2,NA,NA,NA,1,Choose,5,0.277777778,0.454545455,8,0.444444444,38,Undergraduate Degree (e.g. BSc; MBBS),English/Welsh/Scottish/Northern Irish/British,Atheist,Female,20,22,3,20691,2,Prosocial,Individual,7,7,10,5,0,5,Individual,2,3
48,,Individualist,12,2367,0,1,Option 2,2,NA,NA,NA,1,Choose,5,0.277777778,0.416666667,8,0.444444444,38,Undergraduate Degree (e.g. BSc; MBBS),English/Welsh/Scottish/Northern Irish/British,Atheist,Female,20,22,3,20691,1,Competative,Individual,12,6,10,2,8,6,Competative,3,3
49,,Individualist,13,4500,1,0,Option 1,2,NA,NA,NA,1,Choose,6,0.333333333,0.461538462,8,0.444444444,38,Undergraduate Degree (e.g. BSc; MBBS),English/Welsh/Scottish/Northern Irish/British,Atheist,Female,20,22,3,20691,1,Prosocial,Competative,6,6,6,2,0,4,Prosocial,1,3
50,,Individualist,14,6279,1,0,Option 2,2,NA,NA,NA,1,Choose,7,0.388888889,0.5,8,0.444444444,38,Undergraduate Degree (e.g. BSc; MBBS),English/Welsh/Scottish/Northern Irish/British,Atheist,Female,20,22,3,20691,2,Competative,Individual,8,2,9,5,6,4,Individual,2,3
51,,Individualist,15,2370,0,1,Option 2,2,NA,NA,NA,1,Choose,7,0.388888889,0.466666667,8,0.444444444,38,Undergraduate Degree (e.g. BSc; MBBS),English/Welsh/Scottish/Northern Irish/British,Atheist,Female,20,22,3,20691,1,Competative,Prosocial,8,5,8,8,0,3,Competative,3,3
52,,Individualist,16,2229,0,1,Option 2,2,NA,NA,NA,1,Choose,7,0.388888889,0.4375,8,0.444444444,38,Undergraduate Degree (e.g. BSc; MBBS),English/Welsh/Scottish/Northern Irish/British,Atheist,Female,20,22,3,20691,1,Competative,Prosocial,9,5,9,9,0,4,Competative,3,3
53,,Individualist,17,4084,0,1,Option 2,2,NA,NA,NA,1,Choose,7,0.388888889,0.411764706,8,0.444444444,38,Undergraduate Degree (e.g. BSc; MBBS),English/Welsh/Scottish/Northern Irish/British,Atheist,Female,20,22,3,20691,1,Individual,Prosocial,12,5,10,10,0,7,Individual,2,3
54,,Individualist,18,1950,1,0,Option 1,2,NA,NA,NA,1,Choose,8,0.444444444,0.444444444,8,0.444444444,38,Undergraduate Degree (e.g. BSc; MBBS),English/Welsh/Scottish/Northern Irish/British,Atheist,Female,20,22,3,20691,1,Prosocial,Competative,8,8,8,2,0,6,Prosocial,1,3
55,,Competative,1,6443.53,1,0,Option 1,99,NA,NA,NA,1,Choose,1,0.055555556,1,15,0.833333333,39,Undergraduate Degree (e.g. BSc; MBBS),Chinese,Other (please specify),Female,15,6,7,40518.96,1,Prosocial,Individual,6,6,10,5,0,5,Prosocial,1,4
56,,Competative,2,6403.075,0,1,Option 2,99,NA,NA,NA,1,Choose,1,0.055555556,0.5,15,0.833333333,39,Undergraduate Degree (e.g. BSc; MBBS),Chinese,Other (please specify),Female,15,6,7,40518.96,1,Competative,Individual,12,6,10,2,8,6,Competative,3,4
57,,Competative,3,2483.59,1,0,Option 2,99,NA,NA,NA,1,Choose,2,0.111111111,0.666666667,15,0.833333333,39,Undergraduate Degree (e.g. BSc; MBBS),Chinese,Other (please specify),Female,15,6,7,40518.96,2,Competative,Prosocial,10,5,10,10,0,5,Prosocial,1,4
58,,Competative,4,5320.82,1,0,Option 2,99,NA,NA,NA,1,Choose,3,0.166666667,0.75,15,0.833333333,39,Undergraduate Degree (e.g. BSc; MBBS),Chinese,Other (please specify),Female,15,6,7,40518.96,2,Competative,Individual,6,2,8,5,4,3,Individual,2,4
59,,Competative,5,2047.405,1,0,Option 2,99,NA,NA,NA,1,Choose,4,0.222222222,0.8,15,0.833333333,39,Undergraduate Degree (e.g. BSc; MBBS),Chinese,Other (please specify),Female,15,6,7,40518.96,2,Individual,Prosocial,12,5,10,10,0,7,Prosocial,1,4
60,,Competative,6,2854.03,1,0,Option 1,99,NA,NA,NA,1,Choose,5,0.277777778,0.833333333,15,0.833333333,39,Undergraduate Degree (e.g. BSc; MBBS),Chinese,Other (please specify),Female,15,6,7,40518.96,1,Prosocial,Competative,8,8,8,2,0,6,Prosocial,1,4
61,,Competative,7,1517.955,1,0,Option 1,99,NA,NA,NA,1,Choose,6,0.333333333,0.857142857,15,0.833333333,39,Undergraduate Degree (e.g. BSc; MBBS),Chinese,Other (please specify),Female,15,6,7,40518.96,1,Prosocial,Competative,6,6,6,2,0,4,Prosocial,1,4
62,,Competative,8,1609.585,1,0,Option 1,99,NA,NA,NA,1,Choose,7,0.388888889,0.875,15,0.833333333,39,Undergraduate Degree (e.g. BSc; MBBS),Chinese,Other (please specify),Female,15,6,7,40518.96,1,Prosocial,Individual,8,8,10,5,0,5,Prosocial,1,4
63,,Competative,9,5129.44,1,0,Option 2,99,NA,NA,NA,1,Choose,8,0.444444444,0.888888889,15,0.833333333,39,Undergraduate Degree (e.g. BSc; MBBS),Chinese,Other (please specify),Female,15,6,7,40518.96,2,Competative,Individual,8,2,9,5,6,4,Individual,2,4
64,,Competative,10,4625.61,1,0,Option 2,99,NA,NA,NA,1,Choose,9,0.5,0.9,15,0.833333333,39,Undergraduate Degree (e.g. BSc; MBBS),Chinese,Other (please specify),Female,15,6,7,40518.96,2,Individual,Prosocial,12,5,8,8,0,7,Prosocial,1,4
65,,Competative,11,4967.555,0,1,Option 2,99,NA,NA,NA,1,Choose,9,0.5,0.818181818,15,0.833333333,39,Undergraduate Degree (e.g. BSc; MBBS),Chinese,Other (please specify),Female,15,6,7,40518.96,1,Competative,Individual,11,6,9,2,7,5,Competative,3,4
66,,Competative,12,1435.62,1,0,Option 2,99,NA,NA,NA,1,Choose,10,0.555555556,0.833333333,15,0.833333333,39,Undergraduate Degree (e.g. BSc; MBBS),Chinese,Other (please specify),Female,15,6,7,40518.96,2,Competative,Prosocial,8,5,8,8,0,3,Prosocial,1,4
67,,Competative,13,2041.325,1,0,Option 2,99,NA,NA,NA,1,Choose,11,0.611111111,0.846153846,15,0.833333333,39,Undergraduate Degree (e.g. BSc; MBBS),Chinese,Other (please specify),Female,15,6,7,40518.96,2,Individual,Prosocial,12,5,9,9,0,7,Prosocial,1,4
68,,Competative,14,1669.135,1,0,Option 1,99,NA,NA,NA,1,Choose,12,0.666666667,0.857142857,15,0.833333333,39,Undergraduate Degree (e.g. BSc; MBBS),Chinese,Other (please specify),Female,15,6,7,40518.96,1,Prosocial,Individual,7,7,10,5,0,5,Prosocial,1,4
69,,Competative,15,1807.405,1,0,Option 1,99,NA,NA,NA,1,Choose,13,0.722222222,0.866666667,15,0.833333333,39,Undergraduate Degree (e.g. BSc; MBBS),Chinese,Other (please specify),Female,15,6,7,40518.96,1,Prosocial,Competative,7,7,7,2,0,5,Prosocial,1,4
70,,Competative,16,6661.265,0,1,Option 2,99,NA,NA,NA,1,Choose,13,0.722222222,0.8125,15,0.833333333,39,Undergraduate Degree (e.g. BSc; MBBS),Chinese,Other (please specify),Female,15,6,7,40518.96,1,Competative,Individual,10,6,8,2,6,4,Competative,3,4
71,,Competative,17,1552.97,1,0,Option 2,99,NA,NA,NA,1,Choose,14,0.777777778,0.823529412,15,0.833333333,39,Undergraduate Degree (e.g. BSc; MBBS),Chinese,Other (please specify),Female,15,6,7,40518.96,2,Competative,Prosocial,9,5,9,9,0,4,Prosocial,1,4
72,,Competative,18,2325.475,1,0,Option 2,99,NA,NA,NA,1,Choose,15,0.833333333,0.833333333,15,0.833333333,39,Undergraduate Degree (e.g. BSc; MBBS),Chinese,Other (please specify),Female,15,6,7,40518.96,2,Competative,Individual,7,2,8,5,5,3,Individual,2,4
73,,Individualist,1,2731.345,1,0,Option 2,16,NA,NA,NA,1,Choose,1,0.055555556,1,15,0.833333333,34,Undergraduate Degree (e.g. BSc; MBBS),"""White""",Atheist,Female,1,5,3,10908.85,2,Competative,Prosocial,8,5,8,8,0,3,Prosocial,1,5
74,,Individualist,2,5036.76,0,1,Option 2,16,NA,NA,NA,1,Choose,1,0.055555556,0.5,15,0.833333333,34,Undergraduate Degree (e.g. BSc; MBBS),"""White""",Atheist,Female,1,5,3,10908.85,1,Competative,Individual,12,6,10,2,8,6,Competative,3,5
75,,Individualist,3,5214.605,0,1,Option 2,16,NA,NA,NA,1,Choose,1,0.055555556,0.333333333,15,0.833333333,34,Undergraduate Degree (e.g. BSc; MBBS),"""White""",Atheist,Female,1,5,3,10908.85,1,Competative,Individual,10,6,8,2,6,4,Competative,3,5
76,,Individualist,4,1727.145,1,0,Option 2,16,NA,NA,NA,1,Choose,2,0.111111111,0.5,15,0.833333333,34,Undergraduate Degree (e.g. BSc; MBBS),"""White""",Atheist,Female,1,5,3,10908.85,2,Competative,Prosocial,10,5,10,10,0,5,Prosocial,1,5
77,,Individualist,5,1360.04,1,0,Option 2,16,NA,NA,NA,1,Choose,3,0.166666667,0.6,15,0.833333333,34,Undergraduate Degree (e.g. BSc; MBBS),"""White""",Atheist,Female,1,5,3,10908.85,2,Competative,Prosocial,9,5,9,9,0,4,Prosocial,1,5
78,,Individualist,6,1487.450001,1,0,Option 1,16,NA,NA,NA,1,Choose,4,0.222222222,0.666666667,15,0.833333333,34,Undergraduate Degree (e.g. BSc; MBBS),"""White""",Atheist,Female,1,5,3,10908.85,1,Prosocial,Competative,7,7,7,2,0,5,Prosocial,1,5
79,,Individualist,7,1441.804999,1,0,Option 2,16,NA,NA,NA,1,Choose,5,0.277777778,0.714285714,15,0.833333333,34,Undergraduate Degree (e.g. BSc; MBBS),"""White""",Atheist,Female,1,5,3,10908.85,2,Individual,Prosocial,12,5,10,10,0,7,Prosocial,1,5
80,,Individualist,8,2378.815,1,0,Option 2,16,NA,NA,NA,1,Choose,6,0.333333333,0.75,15,0.833333333,34,Undergraduate Degree (e.g. BSc; MBBS),"""White""",Atheist,Female,1,5,3,10908.85,2,Competative,Individual,6,2,8,5,4,3,Individual,2,5
81,,Individualist,9,1334.545,1,0,Option 1,16,NA,NA,NA,1,Choose,7,0.388888889,0.777777778,15,0.833333333,34,Undergraduate Degree (e.g. BSc; MBBS),"""White""",Atheist,Female,1,5,3,10908.85,1,Prosocial,Competative,8,8,8,2,0,6,Prosocial,1,5
82,,Individualist,10,1345.235,1,0,Option 1,16,NA,NA,NA,1,Choose,8,0.444444444,0.8,15,0.833333333,34,Undergraduate Degree (e.g. BSc; MBBS),"""White""",Atheist,Female,1,5,3,10908.85,1,Prosocial,Individual,7,7,10,5,0,5,Prosocial,1,5
83,,Individualist,11,1114.63,1,0,Option 1,16,NA,NA,NA,1,Choose,9,0.5,0.818181818,15,0.833333333,34,Undergraduate Degree (e.g. BSc; MBBS),"""White""",Atheist,Female,1,5,3,10908.85,1,Prosocial,Competative,6,6,6,2,0,4,Prosocial,1,5
84,,Individualist,12,4587.189999,1,0,Option 2,16,NA,NA,NA,1,Choose,10,0.555555556,0.833333333,15,0.833333333,34,Undergraduate Degree (e.g. BSc; MBBS),"""White""",Atheist,Female,1,5,3,10908.85,2,Competative,Individual,7,2,8,5,5,3,Individual,2,5
85,,Individualist,13,1851.059999,0,1,Option 2,16,NA,NA,NA,1,Choose,10,0.555555556,0.769230769,15,0.833333333,34,Undergraduate Degree (e.g. BSc; MBBS),"""White""",Atheist,Female,1,5,3,10908.85,1,Competative,Individual,11,6,9,2,7,5,Competative,3,5
86,,Individualist,14,1174.375,1,0,Option 2,16,NA,NA,NA,1,Choose,11,0.611111111,0.785714286,15,0.833333333,34,Undergraduate Degree (e.g. BSc; MBBS),"""White""",Atheist,Female,1,5,3,10908.85,2,Individual,Prosocial,12,5,9,9,0,7,Prosocial,1,5
87,,Individualist,15,1189.985,1,0,Option 1,16,NA,NA,NA,1,Choose,12,0.666666667,0.8,15,0.833333333,34,Undergraduate Degree (e.g. BSc; MBBS),"""White""",Atheist,Female,1,5,3,10908.85,1,Prosocial,Individual,6,6,10,5,0,5,Prosocial,1,5
88,,Individualist,16,902.795,1,0,Option 1,16,NA,NA,NA,1,Choose,13,0.722222222,0.8125,15,0.833333333,34,Undergraduate Degree (e.g. BSc; MBBS),"""White""",Atheist,Female,1,5,3,10908.85,1,Prosocial,Individual,8,8,10,5,0,5,Prosocial,1,5
89,,Individualist,17,2953.895,1,0,Option 2,16,NA,NA,NA,1,Choose,14,0.777777778,0.823529412,15,0.833333333,34,Undergraduate Degree (e.g. BSc; MBBS),"""White""",Atheist,Female,1,5,3,10908.85,2,Competative,Individual,8,2,9,5,6,4,Individual,2,5
90,,Individualist,18,849.9849997,1,0,Option 2,16,NA,NA,NA,1,Choose,15,0.833333333,0.833333333,15,0.833333333,34,Undergraduate Degree (e.g. BSc; MBBS),"""White""",Atheist,Female,1,5,3,10908.85,2,Individual,Prosocial,12,5,8,8,0,7,Prosocial,1,5
91,,Individualist,1,3070.295,1,0,Option 2,44,NA,NA,NA,1,Choose,1,0.055555556,1,10,0.555555556,28,Postgraduate Degree (e.g. MA; MSc),English/Welsh/Scottish/Northern Irish/British,Atheist,Female,0,2,5,29254.89,2,Competative,Prosocial,9,5,9,9,0,4,Prosocial,1,6
92,,Individualist,2,3772.885,1,0,Option 2,44,NA,NA,NA,1,Choose,2,0.111111111,1,10,0.555555556,28,Postgraduate Degree (e.g. MA; MSc),English/Welsh/Scottish/Northern Irish/British,Atheist,Female,0,2,5,29254.89,2,Competative,Individual,8,2,9,5,6,4,Individual,2,6
93,,Individualist,3,2073.105,1,0,Option 2,44,NA,NA,NA,1,Choose,3,0.166666667,1,10,0.555555556,28,Postgraduate Degree (e.g. MA; MSc),English/Welsh/Scottish/Northern Irish/British,Atheist,Female,0,2,5,29254.89,2,Competative,Prosocial,8,5,8,8,0,3,Prosocial,1,6
94,,Individualist,4,2913.05,0,1,Option 2,44,NA,NA,NA,1,Choose,3,0.166666667,0.75,10,0.555555556,28,Postgraduate Degree (e.g. MA; MSc),English/Welsh/Scottish/Northern Irish/British,Atheist,Female,0,2,5,29254.89,1,Competative,Individual,11,6,9,2,7,5,Competative,3,6
95,,Individualist,5,1900.425,0,1,Option 2,44,NA,NA,NA,1,Choose,3,0.166666667,0.6,10,0.555555556,28,Postgraduate Degree (e.g. MA; MSc),English/Welsh/Scottish/Northern Irish/British,Atheist,Female,0,2,5,29254.89,1,Individual,Prosocial,12,5,8,8,0,7,Individual,2,6
96,,Individualist,6,2297.09,1,0,Option 2,44,NA,NA,NA,1,Choose,4,0.222222222,0.666666667,10,0.555555556,28,Postgraduate Degree (e.g. MA; MSc),English/Welsh/Scottish/Northern Irish/British,Atheist,Female,0,2,5,29254.89,2,Individual,Prosocial,12,5,10,10,0,7,Prosocial,1,6
97,,Individualist,7,1085.16,1,0,Option 1,44,NA,NA,NA,1,Choose,5,0.277777778,0.714285714,10,0.555555556,28,Postgraduate Degree (e.g. MA; MSc),English/Welsh/Scottish/Northern Irish/British,Atheist,Female,0,2,5,29254.89,1,Prosocial,Competative,8,8,8,2,0,6,Prosocial,1,6
98,,Individualist,8,1271.69,1,0,Option 2,44,NA,NA,NA,1,Choose,6,0.333333333,0.75,10,0.555555556,28,Postgraduate Degree (e.g. MA; MSc),English/Welsh/Scottish/Northern Irish/British,Atheist,Female,0,2,5,29254.89,2,Competative,Prosocial,10,5,10,10,0,5,Prosocial,1,6
99,,Individualist,9,1849.345,1,0,Option 2,44,NA,NA,NA,1,Choose,7,0.388888889,0.777777778,10,0.555555556,28,Postgraduate Degree (e.g. MA; MSc),English/Welsh/Scottish/Northern Irish/British,Atheist,Female,0,2,5,29254.89,2,Competative,Individual,6,2,8,5,4,3,Individual,2,6
100,,Individualist,10,2295.33,0,1,Option 2,44,NA,NA,NA,1,Choose,7,0.388888889,0.7,10,0.555555556,28,Postgraduate Degree (e.g. MA; MSc),English/Welsh/Scottish/Northern Irish/British,Atheist,Female,0,2,5,29254.89,1,Competative,Individual,12,6,10,2,8,6,Competative,3,6
101,,Individualist,11,1757.88,1,0,Option 2,44,NA,NA,NA,1,Choose,8,0.444444444,0.727272727,10,0.555555556,28,Postgraduate Degree (e.g. MA; MSc),English/Welsh/Scottish/Northern Irish/British,Atheist,Female,0,2,5,29254.89,2,Competative,Individual,7,2,8,5,5,3,Individual,2,6
102,,Individualist,12,1073.4,1,0,Option 1,44,NA,NA,NA,1,Choose,9,0.5,0.75,10,0.555555556,28,Postgraduate Degree (e.g. MA; MSc),English/Welsh/Scottish/Northern Irish/British,Atheist,Female,0,2,5,29254.89,1,Prosocial,Competative,7,7,7,2,0,5,Prosocial,1,6
103,,Individualist,13,1675.76,0,1,Option 2,44,NA,NA,NA,1,Choose,9,0.5,0.692307692,10,0.555555556,28,Postgraduate Degree (e.g. MA; MSc),English/Welsh/Scottish/Northern Irish/British,Atheist,Female,0,2,5,29254.89,1,Competative,Individual,10,6,8,2,6,4,Competative,3,6
104,,Individualist,14,1432.215,0,1,Option 1,44,NA,NA,NA,1,Choose,9,0.5,0.642857143,10,0.555555556,28,Postgraduate Degree (e.g. MA; MSc),English/Welsh/Scottish/Northern Irish/British,Atheist,Female,0,2,5,29254.89,2,Prosocial,Individual,8,8,10,5,0,5,Individual,2,6
105,,Individualist,15,1525.555,0,1,Option 1,44,NA,NA,NA,1,Choose,9,0.5,0.6,10,0.555555556,28,Postgraduate Degree (e.g. MA; MSc),English/Welsh/Scottish/Northern Irish/British,Atheist,Female,0,2,5,29254.89,2,Prosocial,Individual,6,6,10,5,0,5,Individual,2,6
106,,Individualist,16,3429.215,0,1,Option 2,44,NA,NA,NA,1,Choose,9,0.5,0.5625,10,0.555555556,28,Postgraduate Degree (e.g. MA; MSc),English/Welsh/Scottish/Northern Irish/British,Atheist,Female,0,2,5,29254.89,1,Individual,Prosocial,12,5,9,9,0,7,Individual,2,6
107,,Individualist,17,1747.055,0,1,Option 1,44,NA,NA,NA,1,Choose,9,0.5,0.529411765,10,0.555555556,28,Postgraduate Degree (e.g. MA; MSc),English/Welsh/Scottish/Northern Irish/British,Atheist,Female,0,2,5,29254.89,2,Prosocial,Individual,7,7,10,5,0,5,Individual,2,6
108,,Individualist,18,1250.235,1,0,Option 1,44,NA,NA,NA,1,Choose,10,0.555555556,0.555555556,10,0.555555556,28,Postgraduate Degree (e.g. MA; MSc),English/Welsh/Scottish/Northern Irish/British,Atheist,Female,0,2,5,29254.89,1,Prosocial,Competative,6,6,6,2,0,4,Prosocial,1,6
109,,Prosocial,1,8567.435,1,0,Option 1,100,NA,NA,NA,1,Choose,1,0.055555556,1,5,0.277777778,51,Secondary School (GCSE or equivalent),English/Welsh/Scottish/Northern Irish/British,Christian,Female,1,2,6,37655.58,1,Prosocial,Competative,8,8,8,2,0,6,Prosocial,1,7
110,,Prosocial,2,7038.015,0,1,Option 2,100,NA,NA,NA,1,Choose,1,0.055555556,0.5,5,0.277777778,51,Secondary School (GCSE or equivalent),English/Welsh/Scottish/Northern Irish/British,Christian,Female,1,2,6,37655.58,1,Competative,Individual,7,2,8,5,5,3,Competative,3,7
111,,Prosocial,3,4854.135,1,0,Option 2,100,NA,NA,NA,1,Choose,2,0.111111111,0.666666667,5,0.277777778,51,Secondary School (GCSE or equivalent),English/Welsh/Scottish/Northern Irish/British,Christian,Female,1,2,6,37655.58,2,Competative,Individual,8,2,9,5,6,4,Individual,2,7
112,,Prosocial,4,5022.745,0,1,Option 2,100,NA,NA,NA,1,Choose,2,0.111111111,0.5,5,0.277777778,51,Secondary School (GCSE or equivalent),English/Welsh/Scottish/Northern Irish/British,Christian,Female,1,2,6,37655.58,1,Individual,Prosocial,12,5,9,9,0,7,Individual,2,7
113,,Prosocial,5,3601.845,1,0,Option 1,100,NA,NA,NA,1,Choose,3,0.166666667,0.6,5,0.277777778,51,Secondary School (GCSE or equivalent),English/Welsh/Scottish/Northern Irish/British,Christian,Female,1,2,6,37655.58,1,Prosocial,Competative,6,6,6,2,0,4,Prosocial,1,7
114,,Prosocial,6,3909.25,0,1,Option 2,100,NA,NA,NA,1,Choose,3,0.166666667,0.5,5,0.277777778,51,Secondary School (GCSE or equivalent),English/Welsh/Scottish/Northern Irish/British,Christian,Female,1,2,6,37655.58,1,Competative,Individual,12,6,10,2,8,6,Competative,3,7
115,,Prosocial,7,4467.085,0,1,Option 1,100,NA,NA,NA,1,Choose,3,0.166666667,0.428571429,5,0.277777778,51,Secondary School (GCSE or equivalent),English/Welsh/Scottish/Northern Irish/British,Christian,Female,1,2,6,37655.58,2,Prosocial,Individual,8,8,10,5,0,5,Individual,2,7
116,,Prosocial,8,3287.495,1,0,Option 2,100,NA,NA,NA,1,Choose,4,0.222222222,0.5,5,0.277777778,51,Secondary School (GCSE or equivalent),English/Welsh/Scottish/Northern Irish/British,Christian,Female,1,2,6,37655.58,2,Competative,Individual,6,2,8,5,4,3,Individual,2,7
117,,Prosocial,9,3392.58,0,1,Option 2,100,NA,NA,NA,1,Choose,4,0.222222222,0.444444444,5,0.277777778,51,Secondary School (GCSE or equivalent),English/Welsh/Scottish/Northern Irish/British,Christian,Female,1,2,6,37655.58,1,Individual,Prosocial,12,5,8,8,0,7,Individual,2,7
118,,Prosocial,10,4193.205,0,1,Option 2,100,NA,NA,NA,1,Choose,4,0.222222222,0.4,5,0.277777778,51,Secondary School (GCSE or equivalent),English/Welsh/Scottish/Northern Irish/British,Christian,Female,1,2,6,37655.58,1,Competative,Individual,11,6,9,2,7,5,Competative,3,7
119,,Prosocial,11,4489.86,0,1,Option 2,100,NA,NA,NA,1,Choose,4,0.222222222,0.363636364,5,0.277777778,51,Secondary School (GCSE or equivalent),English/Welsh/Scottish/Northern Irish/British,Christian,Female,1,2,6,37655.58,1,Competative,Individual,10,6,8,2,6,4,Competative,3,7
120,,Prosocial,12,3256.125,0,1,Option 1,100,NA,NA,NA,1,Choose,4,0.222222222,0.333333333,5,0.277777778,51,Secondary School (GCSE or equivalent),English/Welsh/Scottish/Northern Irish/British,Christian,Female,1,2,6,37655.58,2,Prosocial,Individual,7,7,10,5,0,5,Individual,2,7
121,,Prosocial,13,2298.165,0,1,Option 2,100,NA,NA,NA,1,Choose,4,0.222222222,0.307692308,5,0.277777778,51,Secondary School (GCSE or equivalent),English/Welsh/Scottish/Northern Irish/British,Christian,Female,1,2,6,37655.58,1,Competative,Prosocial,8,5,8,8,0,3,Competative,3,7
122,,Prosocial,14,2695.58,0,1,Option 2,100,NA,NA,NA,1,Choose,4,0.222222222,0.285714286,5,0.277777778,51,Secondary School (GCSE or equivalent),English/Welsh/Scottish/Northern Irish/British,Christian,Female,1,2,6,37655.58,1,Competative,Prosocial,10,5,10,10,0,5,Competative,3,7
123,,Prosocial,15,3504.7,0,1,Option 1,100,NA,NA,NA,1,Choose,4,0.222222222,0.266666667,5,0.277777778,51,Secondary School (GCSE or equivalent),English/Welsh/Scottish/Northern Irish/British,Christian,Female,1,2,6,37655.58,2,Prosocial,Individual,6,6,10,5,0,5,Individual,2,7
124,,Prosocial,16,4720.995,1,0,Option 2,100,NA,NA,NA,1,Choose,5,0.277777778,0.3125,5,0.277777778,51,Secondary School (GCSE or equivalent),English/Welsh/Scottish/Northern Irish/British,Christian,Female,1,2,6,37655.58,2,Competative,Prosocial,9,5,9,9,0,4,Prosocial,1,7
125,,Prosocial,17,2835.17,0,1,Option 1,100,NA,NA,NA,1,Choose,5,0.277777778,0.294117647,5,0.277777778,51,Secondary School (GCSE or equivalent),English/Welsh/Scottish/Northern Irish/British,Christian,Female,1,2,6,37655.58,2,Prosocial,Competative,7,7,7,2,0,5,Competative,3,7
126,,Prosocial,18,2416.75,0,1,Option 2,100,NA,NA,NA,1,Choose,5,0.277777778,0.277777778,5,0.277777778,51,Secondary School (GCSE or equivalent),English/Welsh/Scottish/Northern Irish/British,Christian,Female,1,2,6,37655.58,1,Individual,Prosocial,12,5,10,10,0,7,Individual,2,7
127,,Competative,1,2901.7,1,0,Option 1,50,NA,NA,NA,1,Choose,1,0.055555556,1,15,0.833333333,27,College/Sixth Form (A level or equivalent),"""White""",Atheist,Female,0,1,3,13853.58,1,Prosocial,Individual,8,8,10,5,0,5,Prosocial,1,8
128,,Competative,2,1388.485,1,0,Option 2,50,NA,NA,NA,1,Choose,2,0.111111111,1,15,0.833333333,27,College/Sixth Form (A level or equivalent),"""White""",Atheist,Female,0,1,3,13853.58,2,Competative,Prosocial,8,5,8,8,0,3,Prosocial,1,8
129,,Competative,3,1232.115,1,0,Option 2,50,NA,NA,NA,1,Choose,3,0.166666667,1,15,0.833333333,27,College/Sixth Form (A level or equivalent),"""White""",Atheist,Female,0,1,3,13853.58,2,Competative,Prosocial,10,5,10,10,0,5,Prosocial,1,8
130,,Competative,4,4481.61,0,1,Option 2,50,NA,NA,NA,1,Choose,3,0.166666667,0.75,15,0.833333333,27,College/Sixth Form (A level or equivalent),"""White""",Atheist,Female,0,1,3,13853.58,1,Competative,Individual,12,6,10,2,8,6,Competative,3,8
131,,Competative,5,3625.21,0,1,Option 2,50,NA,NA,NA,1,Choose,3,0.166666667,0.6,15,0.833333333,27,College/Sixth Form (A level or equivalent),"""White""",Atheist,Female,0,1,3,13853.58,1,Competative,Individual,11,6,9,2,7,5,Competative,3,8
132,,Competative,6,2510,1,0,Option 2,50,NA,NA,NA,1,Choose,4,0.222222222,0.666666667,15,0.833333333,27,College/Sixth Form (A level or equivalent),"""White""",Atheist,Female,0,1,3,13853.58,2,Individual,Prosocial,12,5,9,9,0,7,Prosocial,1,8
133,,Competative,7,1551.195,1,0,Option 1,50,NA,NA,NA,1,Choose,5,0.277777778,0.714285714,15,0.833333333,27,College/Sixth Form (A level or equivalent),"""White""",Atheist,Female,0,1,3,13853.58,1,Prosocial,Competative,6,6,6,2,0,4,Prosocial,1,8
134,,Competative,8,1350.76,1,0,Option 1,50,NA,NA,NA,1,Choose,6,0.333333333,0.75,15,0.833333333,27,College/Sixth Form (A level or equivalent),"""White""",Atheist,Female,0,1,3,13853.58,1,Prosocial,Competative,8,8,8,2,0,6,Prosocial,1,8
135,,Competative,9,1462.495,1,0,Option 2,50,NA,NA,NA,1,Choose,7,0.388888889,0.777777778,15,0.833333333,27,College/Sixth Form (A level or equivalent),"""White""",Atheist,Female,0,1,3,13853.58,2,Individual,Prosocial,12,5,10,10,0,7,Prosocial,1,8
136,,Competative,10,1154.365,1,0,Option 1,50,NA,NA,NA,1,Choose,8,0.444444444,0.8,15,0.833333333,27,College/Sixth Form (A level or equivalent),"""White""",Atheist,Female,0,1,3,13853.58,1,Prosocial,Competative,7,7,7,2,0,5,Prosocial,1,8
137,,Competative,11,2461.36,1,0,Option 2,50,NA,NA,NA,1,Choose,9,0.5,0.818181818,15,0.833333333,27,College/Sixth Form (A level or equivalent),"""White""",Atheist,Female,0,1,3,13853.58,2,Competative,Individual,6,2,8,5,4,3,Individual,2,8
138,,Competative,12,2177.375,1,0,Option 2,50,NA,NA,NA,1,Choose,10,0.555555556,0.833333333,15,0.833333333,27,College/Sixth Form (A level or equivalent),"""White""",Atheist,Female,0,1,3,13853.58,2,Competative,Individual,7,2,8,5,5,3,Individual,2,8
139,,Competative,13,1579.81,0,1,Option 2,50,NA,NA,NA,1,Choose,10,0.555555556,0.769230769,15,0.833333333,27,College/Sixth Form (A level or equivalent),"""White""",Atheist,Female,0,1,3,13853.58,1,Competative,Individual,10,6,8,2,6,4,Competative,3,8
140,,Competative,14,1239.76,1,0,Option 1,50,NA,NA,NA,1,Choose,11,0.611111111,0.785714286,15,0.833333333,27,College/Sixth Form (A level or equivalent),"""White""",Atheist,Female,0,1,3,13853.58,1,Prosocial,Individual,7,7,10,5,0,5,Prosocial,1,8
141,,Competative,15,1504.335,1,0,Option 2,50,NA,NA,NA,1,Choose,12,0.666666667,0.8,15,0.833333333,27,College/Sixth Form (A level or equivalent),"""White""",Atheist,Female,0,1,3,13853.58,2,Competative,Prosocial,9,5,9,9,0,4,Prosocial,1,8
142,,Competative,16,2754.575,1,0,Option 2,50,NA,NA,NA,1,Choose,13,0.722222222,0.8125,15,0.833333333,27,College/Sixth Form (A level or equivalent),"""White""",Atheist,Female,0,1,3,13853.58,2,Competative,Individual,8,2,9,5,6,4,Individual,2,8
143,,Competative,17,1283.915,1,0,Option 1,50,NA,NA,NA,1,Choose,14,0.777777778,0.823529412,15,0.833333333,27,College/Sixth Form (A level or equivalent),"""White""",Atheist,Female,0,1,3,13853.58,1,Prosocial,Individual,6,6,10,5,0,5,Prosocial,1,8
144,,Competative,18,1784.095,1,0,Option 2,50,NA,NA,NA,1,Choose,15,0.833333333,0.833333333,15,0.833333333,27,College/Sixth Form (A level or equivalent),"""White""",Atheist,Female,0,1,3,13853.58,2,Individual,Prosocial,12,5,8,8,0,7,Prosocial,1,8
145,,Prosocial,1,5591.4,0,1,Option 2,14,NA,NA,NA,0,Choose,0,0,0,2,0.111111111,30,Undergraduate Degree (e.g. BSc; MBBS),English/Welsh/Scottish/Northern Irish/British,Atheist,Male,5,15,1,13285.94,1,Competative,Individual,7,2,8,5,5,3,Competative,3,9
146,,Prosocial,2,1971.57,0,1,Option 1,14,NA,NA,NA,0,Choose,0,0,0,2,0.111111111,30,Undergraduate Degree (e.g. BSc; MBBS),English/Welsh/Scottish/Northern Irish/British,Atheist,Male,5,15,1,13285.94,2,Prosocial,Competative,7,7,7,2,0,5,Competative,3,9
147,,Prosocial,3,3048.38,1,0,Option 2,14,NA,NA,NA,0,Choose,1,0.055555556,0.333333333,2,0.111111111,30,Undergraduate Degree (e.g. BSc; MBBS),English/Welsh/Scottish/Northern Irish/British,Atheist,Male,5,15,1,13285.94,2,Competative,Individual,10,6,8,2,6,4,Individual,2,9
148,,Prosocial,4,5821.245,0,1,Option 1,14,NA,NA,NA,0,Choose,1,0.055555556,0.25,2,0.111111111,30,Undergraduate Degree (e.g. BSc; MBBS),English/Welsh/Scottish/Northern Irish/British,Atheist,Male,5,15,1,13285.94,2,Prosocial,Competative,6,6,6,2,0,4,Competative,3,9
149,,Prosocial,5,4790.735,0,1,Option 2,14,NA,NA,NA,0,Choose,1,0.055555556,0.2,2,0.111111111,30,Undergraduate Degree (e.g. BSc; MBBS),English/Welsh/Scottish/Northern Irish/British,Atheist,Male,5,15,1,13285.94,1,Individual,Prosocial,12,5,8,8,0,7,Individual,2,9
150,,Prosocial,6,2390.035,0,1,Option 2,14,NA,NA,NA,0,Choose,1,0.055555556,0.166666667,2,0.111111111,30,Undergraduate Degree (e.g. BSc; MBBS),English/Welsh/Scottish/Northern Irish/British,Atheist,Male,5,15,1,13285.94,1,Competative,Individual,8,2,9,5,6,4,Competative,3,9
151,,Prosocial,7,2752.155,0,1,Option 2,14,NA,NA,NA,0,Choose,1,0.055555556,0.142857143,2,0.111111111,30,Undergraduate Degree (e.g. BSc; MBBS),English/Welsh/Scottish/Northern Irish/British,Atheist,Male,5,15,1,13285.94,1,Individual,Prosocial,12,5,10,10,0,7,Individual,2,9
152,,Prosocial,8,2061.58,0,1,Option 1,14,NA,NA,NA,0,Choose,1,0.055555556,0.125,2,0.111111111,30,Undergraduate Degree (e.g. BSc; MBBS),English/Welsh/Scottish/Northern Irish/British,Atheist,Male,5,15,1,13285.94,2,Prosocial,Individual,7,7,10,5,0,5,Individual,2,9
153,,Prosocial,9,4448.37,1,0,Option 2,14,NA,NA,NA,0,Choose,2,0.111111111,0.222222222,2,0.111111111,30,Undergraduate Degree (e.g. BSc; MBBS),English/Welsh/Scottish/Northern Irish/British,Atheist,Male,5,15,1,13285.94,2,Competative,Individual,11,6,9,2,7,5,Individual,2,9
154,,Prosocial,10,1887.05,0,1,Option 1,14,NA,NA,NA,0,Choose,2,0.111111111,0.2,2,0.111111111,30,Undergraduate Degree (e.g. BSc; MBBS),English/Welsh/Scottish/Northern Irish/British,Atheist,Male,5,15,1,13285.94,2,Prosocial,Individual,8,8,10,5,0,5,Individual,2,9
155,,Prosocial,11,1364.895,0,1,Option 1,14,NA,NA,NA,0,Choose,2,0.111111111,0.181818182,2,0.111111111,30,Undergraduate Degree (e.g. BSc; MBBS),English/Welsh/Scottish/Northern Irish/British,Atheist,Male,5,15,1,13285.94,2,Prosocial,Individual,6,6,10,5,0,5,Individual,2,9
156,,Prosocial,12,1522.02,0,1,Option 2,14,NA,NA,NA,0,Choose,2,0.111111111,0.166666667,2,0.111111111,30,Undergraduate Degree (e.g. BSc; MBBS),English/Welsh/Scottish/Northern Irish/British,Atheist,Male,5,15,1,13285.94,1,Competative,Prosocial,8,5,8,8,0,3,Competative,3,9
157,,Prosocial,13,2111.84,0,1,Option 2,14,NA,NA,NA,0,Choose,2,0.111111111,0.153846154,2,0.111111111,30,Undergraduate Degree (e.g. BSc; MBBS),English/Welsh/Scottish/Northern Irish/British,Atheist,Male,5,15,1,13285.94,1,Competative,Individual,6,2,8,5,4,3,Competative,3,9
158,,Prosocial,14,3710.375,0,1,Option 2,14,NA,NA,NA,0,Choose,2,0.111111111,0.142857143,2,0.111111111,30,Undergraduate Degree (e.g. BSc; MBBS),English/Welsh/Scottish/Northern Irish/British,Atheist,Male,5,15,1,13285.94,1,Competative,Individual,12,6,10,2,8,6,Competative,3,9
159,,Prosocial,15,2553.355,0,1,Option 2,14,NA,NA,NA,0,Choose,2,0.111111111,0.133333333,2,0.111111111,30,Undergraduate Degree (e.g. BSc; MBBS),English/Welsh/Scottish/Northern Irish/British,Atheist,Male,5,15,1,13285.94,1,Competative,Prosocial,10,5,10,10,0,5,Competative,3,9
160,,Prosocial,16,1513.505,0,1,Option 2,14,NA,NA,NA,0,Choose,2,0.111111111,0.125,2,0.111111111,30,Undergraduate Degree (e.g. BSc; MBBS),English/Welsh/Scottish/Northern Irish/British,Atheist,Male,5,15,1,13285.94,1,Competative,Prosocial,9,5,9,9,0,4,Competative,3,9
161,,Prosocial,17,1166.7,0,1,Option 1,14,NA,NA,NA,0,Choose,2,0.111111111,0.117647059,2,0.111111111,30,Undergraduate Degree (e.g. BSc; MBBS),English/Welsh/Scottish/Northern Irish/British,Atheist,Male,5,15,1,13285.94,2,Prosocial,Competative,8,8,8,2,0,6,Competative,3,9
162,,Prosocial,18,1114.45,0,1,Option 2,14,NA,NA,NA,0,Choose,2,0.111111111,0.111111111,2,0.111111111,30,Undergraduate Degree (e.g. BSc; MBBS),English/Welsh/Scottish/Northern Irish/British,Atheist,Male,5,15,1,13285.94,1,Individual,Prosocial,12,5,9,9,0,7,Individual,2,9
163,,Prosocial,1,3145,0,1,Option 2,79,NA,NA,NA,1,Choose,0,0,0,15,0.833333333,48,Undergraduate Degree (e.g. BSc; MBBS),"""White""",Agnostic,Female,4,3,4,30930.6,1,Competative,Individual,12,6,10,2,8,6,Competative,3,10
164,,Prosocial,2,1552,1,0,Option 1,79,NA,NA,NA,1,Choose,1,0.055555556,0.5,15,0.833333333,48,Undergraduate Degree (e.g. BSc; MBBS),"""White""",Agnostic,Female,4,3,4,30930.6,1,Prosocial,Competative,7,7,7,2,0,5,Prosocial,1,10
165,,Prosocial,3,2157,1,0,Option 2,79,NA,NA,NA,1,Choose,2,0.111111111,0.666666667,15,0.833333333,48,Undergraduate Degree (e.g. BSc; MBBS),"""White""",Agnostic,Female,4,3,4,30930.6,2,Individual,Prosocial,12,5,10,10,0,7,Prosocial,1,10
166,,Prosocial,4,2141,1,0,Option 2,79,NA,NA,NA,1,Choose,3,0.166666667,0.75,15,0.833333333,48,Undergraduate Degree (e.g. BSc; MBBS),"""White""",Agnostic,Female,4,3,4,30930.6,2,Individual,Prosocial,12,5,9,9,0,7,Prosocial,1,10
167,,Prosocial,5,1154,1,0,Option 2,79,NA,NA,NA,1,Choose,4,0.222222222,0.8,15,0.833333333,48,Undergraduate Degree (e.g. BSc; MBBS),"""White""",Agnostic,Female,4,3,4,30930.6,2,Competative,Prosocial,9,5,9,9,0,4,Prosocial,1,10
168,,Prosocial,6,1948,1,0,Option 2,79,NA,NA,NA,1,Choose,5,0.277777778,0.833333333,15,0.833333333,48,Undergraduate Degree (e.g. BSc; MBBS),"""White""",Agnostic,Female,4,3,4,30930.6,2,Competative,Individual,6,2,8,5,4,3,Individual,2,10
169,,Prosocial,7,1429,1,0,Option 2,79,NA,NA,NA,1,Choose,6,0.333333333,0.857142857,15,0.833333333,48,Undergraduate Degree (e.g. BSc; MBBS),"""White""",Agnostic,Female,4,3,4,30930.6,2,Competative,Prosocial,8,5,8,8,0,3,Prosocial,1,10
170,,Prosocial,8,2370,1,0,Option 1,79,NA,NA,NA,1,Choose,7,0.388888889,0.875,15,0.833333333,48,Undergraduate Degree (e.g. BSc; MBBS),"""White""",Agnostic,Female,4,3,4,30930.6,1,Prosocial,Individual,7,7,10,5,0,5,Prosocial,1,10
171,,Prosocial,9,1894,0,1,Option 2,79,NA,NA,NA,1,Choose,7,0.388888889,0.777777778,15,0.833333333,48,Undergraduate Degree (e.g. BSc; MBBS),"""White""",Agnostic,Female,4,3,4,30930.6,1,Competative,Individual,11,6,9,2,7,5,Competative,3,10
172,,Prosocial,10,2118,1,0,Option 2,79,NA,NA,NA,1,Choose,8,0.444444444,0.8,15,0.833333333,48,Undergraduate Degree (e.g. BSc; MBBS),"""White""",Agnostic,Female,4,3,4,30930.6,2,Competative,Individual,7,2,8,5,5,3,Individual,2,10
173,,Prosocial,11,1639,1,0,Option 1,79,NA,NA,NA,1,Choose,9,0.5,0.818181818,15,0.833333333,48,Undergraduate Degree (e.g. BSc; MBBS),"""White""",Agnostic,Female,4,3,4,30930.6,1,Prosocial,Individual,8,8,10,5,0,5,Prosocial,1,10
174,,Prosocial,12,1742,1,0,Option 2,79,NA,NA,NA,1,Choose,10,0.555555556,0.833333333,15,0.833333333,48,Undergraduate Degree (e.g. BSc; MBBS),"""White""",Agnostic,Female,4,3,4,30930.6,2,Individual,Prosocial,12,5,8,8,0,7,Prosocial,1,10
175,,Prosocial,13,2829,1,0,Option 1,79,NA,NA,NA,1,Choose,11,0.611111111,0.846153846,15,0.833333333,48,Undergraduate Degree (e.g. BSc; MBBS),"""White""",Agnostic,Female,4,3,4,30930.6,1,Prosocial,Competative,8,8,8,2,0,6,Prosocial,1,10
176,,Prosocial,14,1294,1,0,Option 2,79,NA,NA,NA,1,Choose,12,0.666666667,0.857142857,15,0.833333333,48,Undergraduate Degree (e.g. BSc; MBBS),"""White""",Agnostic,Female,4,3,4,30930.6,2,Competative,Prosocial,10,5,10,10,0,5,Prosocial,1,10
177,,Prosocial,15,1907,1,0,Option 1,79,NA,NA,NA,1,Choose,13,0.722222222,0.866666667,15,0.833333333,48,Undergraduate Degree (e.g. BSc; MBBS),"""White""",Agnostic,Female,4,3,4,30930.6,1,Prosocial,Individual,6,6,10,5,0,5,Prosocial,1,10
178,,Prosocial,16,997,1,0,Option 1,79,NA,NA,NA,1,Choose,14,0.777777778,0.875,15,0.833333333,48,Undergraduate Degree (e.g. BSc; MBBS),"""White""",Agnostic,Female,4,3,4,30930.6,1,Prosocial,Competative,6,6,6,2,0,4,Prosocial,1,10
179,,Prosocial,17,2068,0,1,Option 2,79,NA,NA,NA,1,Choose,14,0.777777778,0.823529412,15,0.833333333,48,Undergraduate Degree (e.g. BSc; MBBS),"""White""",Agnostic,Female,4,3,4,30930.6,1,Competative,Individual,10,6,8,2,6,4,Competative,3,10
180,,Prosocial,18,2304,1,0,Option 2,79,NA,NA,NA,1,Choose,15,0.833333333,0.833333333,15,0.833333333,48,Undergraduate Degree (e.g. BSc; MBBS),"""White""",Agnostic,Female,4,3,4,30930.6,2,Competative,Individual,8,2,9,5,6,4,Individual,2,10
181,,Competative,1,5152.785,1,0,Option 2,43,NA,NA,NA,1,Choose,1,0.055555556,1,15,0.833333333,39,Doctoral Degree (e.g. PhD; DClinPsy),English/Welsh/Scottish/Northern Irish/British,Other (please specify),Female,0,3,8,118586.79,2,Competative,Prosocial,10,5,10,10,0,5,Prosocial,1,11
182,,Competative,2,3005.6,1,0,Option 1,43,NA,NA,NA,1,Choose,2,0.111111111,1,15,0.833333333,39,Doctoral Degree (e.g. PhD; DClinPsy),English/Welsh/Scottish/Northern Irish/British,Other (please specify),Female,0,3,8,118586.79,1,Prosocial,Competative,7,7,7,2,0,5,Prosocial,1,11
183,,Competative,3,3838.215,1,0,Option 1,43,NA,NA,NA,1,Choose,3,0.166666667,1,15,0.833333333,39,Doctoral Degree (e.g. PhD; DClinPsy),English/Welsh/Scottish/Northern Irish/British,Other (please specify),Female,0,3,8,118586.79,1,Prosocial,Individual,7,7,10,5,0,5,Prosocial,1,11
184,,Competative,4,2750.23,1,0,Option 2,43,NA,NA,NA,1,Choose,4,0.222222222,1,15,0.833333333,39,Doctoral Degree (e.g. PhD; DClinPsy),English/Welsh/Scottish/Northern Irish/British,Other (please specify),Female,0,3,8,118586.79,2,Individual,Prosocial,12,5,8,8,0,7,Prosocial,1,11
185,,Competative,5,6372.08,1,0,Option 2,43,NA,NA,NA,1,Choose,5,0.277777778,1,15,0.833333333,39,Doctoral Degree (e.g. PhD; DClinPsy),English/Welsh/Scottish/Northern Irish/British,Other (please specify),Female,0,3,8,118586.79,2,Competative,Individual,8,2,9,5,6,4,Individual,2,11
186,,Competative,6,3130.975,1,0,Option 1,43,NA,NA,NA,1,Choose,6,0.333333333,1,15,0.833333333,39,Doctoral Degree (e.g. PhD; DClinPsy),English/Welsh/Scottish/Northern Irish/British,Other (please specify),Female,0,3,8,118586.79,1,Prosocial,Individual,6,6,10,5,0,5,Prosocial,1,11
187,,Competative,7,1060.995,1,0,Option 1,43,NA,NA,NA,1,Choose,7,0.388888889,1,15,0.833333333,39,Doctoral Degree (e.g. PhD; DClinPsy),English/Welsh/Scottish/Northern Irish/British,Other (please specify),Female,0,3,8,118586.79,1,Prosocial,Competative,8,8,8,2,0,6,Prosocial,1,11
188,,Competative,8,1823.075,1,0,Option 2,43,NA,NA,NA,1,Choose,8,0.444444444,1,15,0.833333333,39,Doctoral Degree (e.g. PhD; DClinPsy),English/Welsh/Scottish/Northern Irish/British,Other (please specify),Female,0,3,8,118586.79,2,Competative,Prosocial,8,5,8,8,0,3,Prosocial,1,11
189,,Competative,9,8954.415,1,0,Option 2,43,NA,NA,NA,1,Choose,9,0.5,1,15,0.833333333,39,Doctoral Degree (e.g. PhD; DClinPsy),English/Welsh/Scottish/Northern Irish/British,Other (please specify),Female,0,3,8,118586.79,2,Competative,Individual,6,2,8,5,4,3,Individual,2,11
190,,Competative,10,3736.11,1,0,Option 2,43,NA,NA,NA,1,Choose,10,0.555555556,1,15,0.833333333,39,Doctoral Degree (e.g. PhD; DClinPsy),English/Welsh/Scottish/Northern Irish/British,Other (please specify),Female,0,3,8,118586.79,2,Competative,Prosocial,9,5,9,9,0,4,Prosocial,1,11
191,,Competative,11,1246.51,1,0,Option 1,43,NA,NA,NA,1,Choose,11,0.611111111,1,15,0.833333333,39,Doctoral Degree (e.g. PhD; DClinPsy),English/Welsh/Scottish/Northern Irish/British,Other (please specify),Female,0,3,8,118586.79,1,Prosocial,Competative,6,6,6,2,0,4,Prosocial,1,11
192,,Competative,12,1121.89,1,0,Option 1,43,NA,NA,NA,1,Choose,12,0.666666667,1,15,0.833333333,39,Doctoral Degree (e.g. PhD; DClinPsy),English/Welsh/Scottish/Northern Irish/British,Other (please specify),Female,0,3,8,118586.79,1,Prosocial,Individual,8,8,10,5,0,5,Prosocial,1,11
193,,Competative,13,2597.48,1,0,Option 2,43,NA,NA,NA,1,Choose,13,0.722222222,1,15,0.833333333,39,Doctoral Degree (e.g. PhD; DClinPsy),English/Welsh/Scottish/Northern Irish/British,Other (please specify),Female,0,3,8,118586.79,2,Individual,Prosocial,12,5,10,10,0,7,Prosocial,1,11
194,,Competative,14,3309.615,1,0,Option 2,43,NA,NA,NA,1,Choose,14,0.777777778,1,15,0.833333333,39,Doctoral Degree (e.g. PhD; DClinPsy),English/Welsh/Scottish/Northern Irish/British,Other (please specify),Female,0,3,8,118586.79,2,Competative,Individual,7,2,8,5,5,3,Individual,2,11
195,,Competative,15,4961.985,0,1,Option 2,43,NA,NA,NA,1,Choose,14,0.777777778,0.933333333,15,0.833333333,39,Doctoral Degree (e.g. PhD; DClinPsy),English/Welsh/Scottish/Northern Irish/British,Other (please specify),Female,0,3,8,118586.79,1,Competative,Individual,12,6,10,2,8,6,Competative,3,11
196,,Competative,16,3246.395,1,0,Option 2,43,NA,NA,NA,1,Choose,15,0.833333333,0.9375,15,0.833333333,39,Doctoral Degree (e.g. PhD; DClinPsy),English/Welsh/Scottish/Northern Irish/British,Other (please specify),Female,0,3,8,118586.79,2,Individual,Prosocial,12,5,9,9,0,7,Prosocial,1,11
197,,Competative,17,3930.785,0,1,Option 2,43,NA,NA,NA,1,Choose,15,0.833333333,0.882352941,15,0.833333333,39,Doctoral Degree (e.g. PhD; DClinPsy),English/Welsh/Scottish/Northern Irish/British,Other (please specify),Female,0,3,8,118586.79,1,Competative,Individual,10,6,8,2,6,4,Competative,3,11
198,,Competative,18,2883.625,0,1,Option 2,43,NA,NA,NA,1,Choose,15,0.833333333,0.833333333,15,0.833333333,39,Doctoral Degree (e.g. PhD; DClinPsy),English/Welsh/Scottish/Northern Irish/British,Other (please specify),Female,0,3,8,118586.79,1,Competative,Individual,11,6,9,2,7,5,Competative,3,11
199,,Competative,1,5832,0,1,Option 2,29,NA,NA,NA,1,Choose,0,0,0,13,0.722222222,46,Undergraduate Degree (e.g. BSc; MBBS),"""White""",Other (please specify),Female,1,3,6,10721.4,1,Competative,Individual,12,6,10,2,8,6,Competative,3,12
200,,Competative,2,3374,0,1,Option 2,29,NA,NA,NA,1,Choose,0,0,0,13,0.722222222,46,Undergraduate Degree (e.g. BSc; MBBS),"""White""",Other (please specify),Female,1,3,6,10721.4,1,Competative,Individual,8,2,9,5,6,4,Competative,3,12
201,,Competative,3,3286,0,1,Option 2,29,NA,NA,NA,1,Choose,0,0,0,13,0.722222222,46,Undergraduate Degree (e.g. BSc; MBBS),"""White""",Other (please specify),Female,1,3,6,10721.4,1,Competative,Individual,11,6,9,2,7,5,Competative,3,12
202,,Competative,4,1498,1,0,Option 2,29,NA,NA,NA,1,Choose,1,0.055555556,0.25,13,0.722222222,46,Undergraduate Degree (e.g. BSc; MBBS),"""White""",Other (please specify),Female,1,3,6,10721.4,2,Competative,Prosocial,9,5,9,9,0,4,Prosocial,1,12
203,,Competative,5,2754,0,1,Option 1,29,NA,NA,NA,1,Choose,1,0.055555556,0.2,13,0.722222222,46,Undergraduate Degree (e.g. BSc; MBBS),"""White""",Other (please specify),Female,1,3,6,10721.4,2,Prosocial,Individual,6,6,10,5,0,5,Individual,2,12
204,,Competative,6,1680,1,0,Option 2,29,NA,NA,NA,1,Choose,2,0.111111111,0.333333333,13,0.722222222,46,Undergraduate Degree (e.g. BSc; MBBS),"""White""",Other (please specify),Female,1,3,6,10721.4,2,Competative,Individual,6,2,8,5,4,3,Individual,2,12
205,,Competative,7,1059,1,0,Option 1,29,NA,NA,NA,1,Choose,3,0.166666667,0.428571429,13,0.722222222,46,Undergraduate Degree (e.g. BSc; MBBS),"""White""",Other (please specify),Female,1,3,6,10721.4,1,Prosocial,Competative,6,6,6,2,0,4,Prosocial,1,12
206,,Competative,8,1725,1,0,Option 2,29,NA,NA,NA,1,Choose,4,0.222222222,0.5,13,0.722222222,46,Undergraduate Degree (e.g. BSc; MBBS),"""White""",Other (please specify),Female,1,3,6,10721.4,2,Competative,Individual,7,2,8,5,5,3,Individual,2,12
207,,Competative,9,2406,1,0,Option 2,29,NA,NA,NA,1,Choose,5,0.277777778,0.555555556,13,0.722222222,46,Undergraduate Degree (e.g. BSc; MBBS),"""White""",Other (please specify),Female,1,3,6,10721.4,2,Individual,Prosocial,12,5,8,8,0,7,Prosocial,1,12
208,,Competative,10,1258,1,0,Option 1,29,NA,NA,NA,1,Choose,6,0.333333333,0.6,13,0.722222222,46,Undergraduate Degree (e.g. BSc; MBBS),"""White""",Other (please specify),Female,1,3,6,10721.4,1,Prosocial,Competative,7,7,7,2,0,5,Prosocial,1,12
209,,Competative,11,1924,1,0,Option 2,29,NA,NA,NA,1,Choose,7,0.388888889,0.636363636,13,0.722222222,46,Undergraduate Degree (e.g. BSc; MBBS),"""White""",Other (please specify),Female,1,3,6,10721.4,2,Individual,Prosocial,12,5,9,9,0,7,Prosocial,1,12
210,,Competative,12,906,1,0,Option 2,29,NA,NA,NA,1,Choose,8,0.444444444,0.666666667,13,0.722222222,46,Undergraduate Degree (e.g. BSc; MBBS),"""White""",Other (please specify),Female,1,3,6,10721.4,2,Competative,Prosocial,10,5,10,10,0,5,Prosocial,1,12
211,,Competative,13,2156,0,1,Option 2,29,NA,NA,NA,1,Choose,8,0.444444444,0.615384615,13,0.722222222,46,Undergraduate Degree (e.g. BSc; MBBS),"""White""",Other (please specify),Female,1,3,6,10721.4,1,Competative,Individual,10,6,8,2,6,4,Competative,3,12
212,,Competative,14,933,1,0,Option 2,29,NA,NA,NA,1,Choose,9,0.5,0.642857143,13,0.722222222,46,Undergraduate Degree (e.g. BSc; MBBS),"""White""",Other (please specify),Female,1,3,6,10721.4,2,Individual,Prosocial,12,5,10,10,0,7,Prosocial,1,12
213,,Competative,15,958,1,0,Option 2,29,NA,NA,NA,1,Choose,10,0.555555556,0.666666667,13,0.722222222,46,Undergraduate Degree (e.g. BSc; MBBS),"""White""",Other (please specify),Female,1,3,6,10721.4,2,Competative,Prosocial,8,5,8,8,0,3,Prosocial,1,12
214,,Competative,16,1618,1,0,Option 1,29,NA,NA,NA,1,Choose,11,0.611111111,0.6875,13,0.722222222,46,Undergraduate Degree (e.g. BSc; MBBS),"""White""",Other (please specify),Female,1,3,6,10721.4,1,Prosocial,Individual,7,7,10,5,0,5,Prosocial,1,12
215,,Competative,17,664,1,0,Option 1,29,NA,NA,NA,1,Choose,12,0.666666667,0.705882353,13,0.722222222,46,Undergraduate Degree (e.g. BSc; MBBS),"""White""",Other (please specify),Female,1,3,6,10721.4,1,Prosocial,Competative,8,8,8,2,0,6,Prosocial,1,12
216,,Competative,18,1773,1,0,Option 1,29,NA,NA,NA,1,Choose,13,0.722222222,0.722222222,13,0.722222222,46,Undergraduate Degree (e.g. BSc; MBBS),"""White""",Other (please specify),Female,1,3,6,10721.4,1,Prosocial,Individual,8,8,10,5,0,5,Prosocial,1,12
217,,Competative,1,10025,1,0,Option 2,92,NA,NA,NA,0,Choose,1,0.055555556,1,15,0.833333333,74,Secondary School (GCSE or equivalent),English/Welsh/Scottish/Northern Irish/British,Buddhist,Male,0,0,4,50568.5,2,Competative,Individual,6,2,8,5,4,3,Individual,2,13
218,,Competative,2,6091,1,0,Option 2,92,NA,NA,NA,0,Choose,2,0.111111111,1,15,0.833333333,74,Secondary School (GCSE or equivalent),English/Welsh/Scottish/Northern Irish/British,Buddhist,Male,0,0,4,50568.5,2,Competative,Individual,7,2,8,5,5,3,Individual,2,13
219,,Competative,3,3792,1,0,Option 2,92,NA,NA,NA,0,Choose,3,0.166666667,1,15,0.833333333,74,Secondary School (GCSE or equivalent),English/Welsh/Scottish/Northern Irish/British,Buddhist,Male,0,0,4,50568.5,2,Competative,Prosocial,8,5,8,8,0,3,Prosocial,1,13
220,,Competative,4,2628,1,0,Option 1,92,NA,NA,NA,0,Choose,4,0.222222222,1,15,0.833333333,74,Secondary School (GCSE or equivalent),English/Welsh/Scottish/Northern Irish/British,Buddhist,Male,0,0,4,50568.5,1,Prosocial,Individual,8,8,10,5,0,5,Prosocial,1,13
221,,Competative,5,1919,1,0,Option 2,92,NA,NA,NA,0,Choose,5,0.277777778,1,15,0.833333333,74,Secondary School (GCSE or equivalent),English/Welsh/Scottish/Northern Irish/British,Buddhist,Male,0,0,4,50568.5,2,Individual,Prosocial,12,5,9,9,0,7,Prosocial,1,13
222,,Competative,6,1651,1,0,Option 1,92,NA,NA,NA,0,Choose,6,0.333333333,1,15,0.833333333,74,Secondary School (GCSE or equivalent),English/Welsh/Scottish/Northern Irish/British,Buddhist,Male,0,0,4,50568.5,1,Prosocial,Competative,8,8,8,2,0,6,Prosocial,1,13
223,,Competative,7,1886,1,0,Option 2,92,NA,NA,NA,0,Choose,7,0.388888889,1,15,0.833333333,74,Secondary School (GCSE or equivalent),English/Welsh/Scottish/Northern Irish/British,Buddhist,Male,0,0,4,50568.5,2,Individual,Prosocial,12,5,8,8,0,7,Prosocial,1,13
224,,Competative,8,1542,1,0,Option 2,92,NA,NA,NA,0,Choose,8,0.444444444,1,15,0.833333333,74,Secondary School (GCSE or equivalent),English/Welsh/Scottish/Northern Irish/British,Buddhist,Male,0,0,4,50568.5,2,Individual,Prosocial,12,5,10,10,0,7,Prosocial,1,13
225,,Competative,9,1775,1,0,Option 2,92,NA,NA,NA,0,Choose,9,0.5,1,15,0.833333333,74,Secondary School (GCSE or equivalent),English/Welsh/Scottish/Northern Irish/British,Buddhist,Male,0,0,4,50568.5,2,Competative,Prosocial,10,5,10,10,0,5,Prosocial,1,13
226,,Competative,10,5959,0,1,Option 2,92,NA,NA,NA,0,Choose,9,0.5,0.9,15,0.833333333,74,Secondary School (GCSE or equivalent),English/Welsh/Scottish/Northern Irish/British,Buddhist,Male,0,0,4,50568.5,1,Competative,Individual,10,6,8,2,6,4,Competative,3,13
227,,Competative,11,1703,1,0,Option 1,92,NA,NA,NA,0,Choose,10,0.555555556,0.909090909,15,0.833333333,74,Secondary School (GCSE or equivalent),English/Welsh/Scottish/Northern Irish/British,Buddhist,Male,0,0,4,50568.5,1,Prosocial,Competative,6,6,6,2,0,4,Prosocial,1,13
228,,Competative,12,3514,0,1,Option 2,92,NA,NA,NA,0,Choose,10,0.555555556,0.833333333,15,0.833333333,74,Secondary School (GCSE or equivalent),English/Welsh/Scottish/Northern Irish/British,Buddhist,Male,0,0,4,50568.5,1,Competative,Individual,11,6,9,2,7,5,Competative,3,13
229,,Competative,13,2074,1,0,Option 2,92,NA,NA,NA,0,Choose,11,0.611111111,0.846153846,15,0.833333333,74,Secondary School (GCSE or equivalent),English/Welsh/Scottish/Northern Irish/British,Buddhist,Male,0,0,4,50568.5,2,Competative,Individual,8,2,9,5,6,4,Individual,2,13
230,,Competative,14,2195,1,0,Option 2,92,NA,NA,NA,0,Choose,12,0.666666667,0.857142857,15,0.833333333,74,Secondary School (GCSE or equivalent),English/Welsh/Scottish/Northern Irish/British,Buddhist,Male,0,0,4,50568.5,2,Competative,Prosocial,9,5,9,9,0,4,Prosocial,1,13
231,,Competative,15,1853,1,0,Option 1,92,NA,NA,NA,0,Choose,13,0.722222222,0.866666667,15,0.833333333,74,Secondary School (GCSE or equivalent),English/Welsh/Scottish/Northern Irish/British,Buddhist,Male,0,0,4,50568.5,1,Prosocial,Competative,7,7,7,2,0,5,Prosocial,1,13
232,,Competative,16,1378,1,0,Option 1,92,NA,NA,NA,0,Choose,14,0.777777778,0.875,15,0.833333333,74,Secondary School (GCSE or equivalent),English/Welsh/Scottish/Northern Irish/British,Buddhist,Male,0,0,4,50568.5,1,Prosocial,Individual,6,6,10,5,0,5,Prosocial,1,13
233,,Competative,17,4749,0,1,Option 2,92,NA,NA,NA,0,Choose,14,0.777777778,0.823529412,15,0.833333333,74,Secondary School (GCSE or equivalent),English/Welsh/Scottish/Northern Irish/British,Buddhist,Male,0,0,4,50568.5,1,Competative,Individual,12,6,10,2,8,6,Competative,3,13
234,,Competative,18,1184,1,0,Option 1,92,NA,NA,NA,0,Choose,15,0.833333333,0.833333333,15,0.833333333,74,Secondary School (GCSE or equivalent),English/Welsh/Scottish/Northern Irish/British,Buddhist,Male,0,0,4,50568.5,1,Prosocial,Individual,7,7,10,5,0,5,Prosocial,1,13
235,,Competative,1,2500.365,0,1,Option 1,3,NA,NA,NA,1,Choose,0,0,0,4,0.222222222,41,Secondary School (GCSE or equivalent),English/Welsh/Scottish/Northern Irish/British,Christian,Female,1,5,7,31663.73,2,Prosocial,Individual,6,6,10,5,0,5,Individual,2,14
236,,Competative,2,3336.04,1,0,Option 2,3,NA,NA,NA,1,Choose,1,0.055555556,0.5,4,0.222222222,41,Secondary School (GCSE or equivalent),English/Welsh/Scottish/Northern Irish/British,Christian,Female,1,5,7,31663.73,2,Competative,Individual,6,2,8,5,4,3,Individual,2,14
237,,Competative,3,1534.98,0,1,Option 1,3,NA,NA,NA,1,Choose,1,0.055555556,0.333333333,4,0.222222222,41,Secondary School (GCSE or equivalent),English/Welsh/Scottish/Northern Irish/British,Christian,Female,1,5,7,31663.73,2,Prosocial,Individual,8,8,10,5,0,5,Individual,2,14
238,,Competative,4,1682.17,1,0,Option 2,3,NA,NA,NA,1,Choose,2,0.111111111,0.5,4,0.222222222,41,Secondary School (GCSE or equivalent),English/Welsh/Scottish/Northern Irish/British,Christian,Female,1,5,7,31663.73,2,Competative,Individual,8,2,9,5,6,4,Individual,2,14
239,,Competative,5,3403.19,0,1,Option 2,3,NA,NA,NA,1,Choose,2,0.111111111,0.4,4,0.222222222,41,Secondary School (GCSE or equivalent),English/Welsh/Scottish/Northern Irish/British,Christian,Female,1,5,7,31663.73,1,Individual,Prosocial,12,5,9,9,0,7,Individual,2,14
240,,Competative,6,1470.565,0,1,Option 2,3,NA,NA,NA,1,Choose,2,0.111111111,0.333333333,4,0.222222222,41,Secondary School (GCSE or equivalent),English/Welsh/Scottish/Northern Irish/British,Christian,Female,1,5,7,31663.73,1,Competative,Individual,10,6,8,2,6,4,Competative,3,14
241,,Competative,7,2253.705,0,1,Option 1,3,NA,NA,NA,1,Choose,2,0.111111111,0.285714286,4,0.222222222,41,Secondary School (GCSE or equivalent),English/Welsh/Scottish/Northern Irish/British,Christian,Female,1,5,7,31663.73,2,Prosocial,Competative,7,7,7,2,0,5,Competative,3,14
242,,Competative,8,1449.345,0,1,Option 2,3,NA,NA,NA,1,Choose,2,0.111111111,0.25,4,0.222222222,41,Secondary School (GCSE or equivalent),English/Welsh/Scottish/Northern Irish/British,Christian,Female,1,5,7,31663.73,1,Individual,Prosocial,12,5,8,8,0,7,Individual,2,14
243,,Competative,9,2842.29,0,1,Option 2,3,NA,NA,NA,1,Choose,2,0.111111111,0.222222222,4,0.222222222,41,Secondary School (GCSE or equivalent),English/Welsh/Scottish/Northern Irish/British,Christian,Female,1,5,7,31663.73,1,Competative,Prosocial,9,5,9,9,0,4,Competative,3,14
244,,Competative,10,4261.65,0,1,Option 2,3,NA,NA,NA,1,Choose,2,0.111111111,0.2,4,0.222222222,41,Secondary School (GCSE or equivalent),English/Welsh/Scottish/Northern Irish/British,Christian,Female,1,5,7,31663.73,1,Competative,Individual,7,2,8,5,5,3,Competative,3,14
245,,Competative,11,3254.11,1,0,Option 2,3,NA,NA,NA,1,Choose,3,0.166666667,0.272727273,4,0.222222222,41,Secondary School (GCSE or equivalent),English/Welsh/Scottish/Northern Irish/British,Christian,Female,1,5,7,31663.73,2,Competative,Individual,12,6,10,2,8,6,Individual,2,14
246,,Competative,12,1238.205,0,1,Option 2,3,NA,NA,NA,1,Choose,3,0.166666667,0.25,4,0.222222222,41,Secondary School (GCSE or equivalent),English/Welsh/Scottish/Northern Irish/British,Christian,Female,1,5,7,31663.73,1,Competative,Prosocial,10,5,10,10,0,5,Competative,3,14
247,,Competative,13,2214.82,0,1,Option 1,3,NA,NA,NA,1,Choose,3,0.166666667,0.230769231,4,0.222222222,41,Secondary School (GCSE or equivalent),English/Welsh/Scottish/Northern Irish/British,Christian,Female,1,5,7,31663.73,2,Prosocial,Competative,8,8,8,2,0,6,Competative,3,14
248,,Competative,14,2010.265,0,1,Option 2,3,NA,NA,NA,1,Choose,3,0.166666667,0.214285714,4,0.222222222,41,Secondary School (GCSE or equivalent),English/Welsh/Scottish/Northern Irish/British,Christian,Female,1,5,7,31663.73,1,Competative,Prosocial,8,5,8,8,0,3,Competative,3,14
249,,Competative,15,1963.725,0,1,Option 1,3,NA,NA,NA,1,Choose,3,0.166666667,0.2,4,0.222222222,41,Secondary School (GCSE or equivalent),English/Welsh/Scottish/Northern Irish/British,Christian,Female,1,5,7,31663.73,2,Prosocial,Competative,6,6,6,2,0,4,Competative,3,14
250,,Competative,16,2274.07,0,1,Option 2,3,NA,NA,NA,1,Choose,3,0.166666667,0.1875,4,0.222222222,41,Secondary School (GCSE or equivalent),English/Welsh/Scottish/Northern Irish/British,Christian,Female,1,5,7,31663.73,1,Individual,Prosocial,12,5,10,10,0,7,Individual,2,14
251,,Competative,17,4240.9,1,0,Option 2,3,NA,NA,NA,1,Choose,4,0.222222222,0.235294118,4,0.222222222,41,Secondary School (GCSE or equivalent),English/Welsh/Scottish/Northern Irish/British,Christian,Female,1,5,7,31663.73,2,Competative,Individual,11,6,9,2,7,5,Individual,2,14
252,,Competative,18,3246.81,0,1,Option 1,3,NA,NA,NA,1,Choose,4,0.222222222,0.222222222,4,0.222222222,41,Secondary School (GCSE or equivalent),English/Welsh/Scottish/Northern Irish/British,Christian,Female,1,5,7,31663.73,2,Prosocial,Individual,7,7,10,5,0,5,Individual,2,14
253,,Prosocial,1,3473.705,1,0,Option 2,35,NA,NA,NA,1,Choose,1,0.055555556,1,12,0.666666667,60,Doctoral Degree (e.g. PhD; DClinPsy),English/Welsh/Scottish/Northern Irish/British,Christian,Female,0,0,4,28957.12,2,Individual,Prosocial,12,5,10,10,0,7,Prosocial,1,15
254,,Prosocial,2,7087.295,0,1,Option 2,35,NA,NA,NA,1,Choose,1,0.055555556,0.5,12,0.666666667,60,Doctoral Degree (e.g. PhD; DClinPsy),English/Welsh/Scottish/Northern Irish/British,Christian,Female,0,0,4,28957.12,1,Competative,Individual,11,6,9,2,7,5,Competative,3,15
255,,Prosocial,3,2836.94,1,0,Option 1,35,NA,NA,NA,1,Choose,2,0.111111111,0.666666667,12,0.666666667,60,Doctoral Degree (e.g. PhD; DClinPsy),English/Welsh/Scottish/Northern Irish/British,Christian,Female,0,0,4,28957.12,1,Prosocial,Competative,7,7,7,2,0,5,Prosocial,1,15
256,,Prosocial,4,4157.855,1,0,Option 2,35,NA,NA,NA,1,Choose,3,0.166666667,0.75,12,0.666666667,60,Doctoral Degree (e.g. PhD; DClinPsy),English/Welsh/Scottish/Northern Irish/British,Christian,Female,0,0,4,28957.12,2,Competative,Individual,6,2,8,5,4,3,Individual,2,15
257,,Prosocial,5,6799.325,0,1,Option 2,35,NA,NA,NA,1,Choose,3,0.166666667,0.6,12,0.666666667,60,Doctoral Degree (e.g. PhD; DClinPsy),English/Welsh/Scottish/Northern Irish/British,Christian,Female,0,0,4,28957.12,1,Individual,Prosocial,12,5,9,9,0,7,Individual,2,15
258,,Prosocial,6,3458.105,1,0,Option 1,35,NA,NA,NA,1,Choose,4,0.222222222,0.666666667,12,0.666666667,60,Doctoral Degree (e.g. PhD; DClinPsy),English/Welsh/Scottish/Northern Irish/British,Christian,Female,0,0,4,28957.12,1,Prosocial,Competative,6,6,6,2,0,4,Prosocial,1,15
259,,Prosocial,7,4346.23,0,1,Option 2,35,NA,NA,NA,1,Choose,4,0.222222222,0.571428571,12,0.666666667,60,Doctoral Degree (e.g. PhD; DClinPsy),English/Welsh/Scottish/Northern Irish/British,Christian,Female,0,0,4,28957.12,1,Individual,Prosocial,12,5,8,8,0,7,Individual,2,15
260,,Prosocial,8,3037.19,1,0,Option 2,35,NA,NA,NA,1,Choose,5,0.277777778,0.625,12,0.666666667,60,Doctoral Degree (e.g. PhD; DClinPsy),English/Welsh/Scottish/Northern Irish/British,Christian,Female,0,0,4,28957.12,2,Competative,Prosocial,10,5,10,10,0,5,Prosocial,1,15
261,,Prosocial,9,5197.34,1,0,Option 1,35,NA,NA,NA,1,Choose,6,0.333333333,0.666666667,12,0.666666667,60,Doctoral Degree (e.g. PhD; DClinPsy),English/Welsh/Scottish/Northern Irish/British,Christian,Female,0,0,4,28957.12,1,Prosocial,Individual,7,7,10,5,0,5,Prosocial,1,15
262,,Prosocial,10,1582.72,1,0,Option 1,35,NA,NA,NA,1,Choose,7,0.388888889,0.7,12,0.666666667,60,Doctoral Degree (e.g. PhD; DClinPsy),English/Welsh/Scottish/Northern Irish/British,Christian,Female,0,0,4,28957.12,1,Prosocial,Competative,8,8,8,2,0,6,Prosocial,1,15
263,,Prosocial,11,4180.965,0,1,Option 2,35,NA,NA,NA,1,Choose,7,0.388888889,0.636363636,12,0.666666667,60,Doctoral Degree (e.g. PhD; DClinPsy),English/Welsh/Scottish/Northern Irish/British,Christian,Female,0,0,4,28957.12,1,Competative,Individual,12,6,10,2,8,6,Competative,3,15
264,,Prosocial,12,3609.32,1,0,Option 2,35,NA,NA,NA,1,Choose,8,0.444444444,0.666666667,12,0.666666667,60,Doctoral Degree (e.g. PhD; DClinPsy),English/Welsh/Scottish/Northern Irish/British,Christian,Female,0,0,4,28957.12,2,Competative,Prosocial,8,5,8,8,0,3,Prosocial,1,15
265,,Prosocial,13,5649.345,0,1,Option 1,35,NA,NA,NA,1,Choose,8,0.444444444,0.615384615,12,0.666666667,60,Doctoral Degree (e.g. PhD; DClinPsy),English/Welsh/Scottish/Northern Irish/British,Christian,Female,0,0,4,28957.12,2,Prosocial,Individual,6,6,10,5,0,5,Individual,2,15
266,,Prosocial,14,3511.775,1,0,Option 2,35,NA,NA,NA,1,Choose,9,0.5,0.642857143,12,0.666666667,60,Doctoral Degree (e.g. PhD; DClinPsy),English/Welsh/Scottish/Northern Irish/British,Christian,Female,0,0,4,28957.12,2,Competative,Individual,7,2,8,5,5,3,Individual,2,15
267,,Prosocial,15,3201.135,1,0,Option 1,35,NA,NA,NA,1,Choose,10,0.555555556,0.666666667,12,0.666666667,60,Doctoral Degree (e.g. PhD; DClinPsy),English/Welsh/Scottish/Northern Irish/British,Christian,Female,0,0,4,28957.12,1,Prosocial,Individual,8,8,10,5,0,5,Prosocial,1,15
268,,Prosocial,16,2529.825,0,1,Option 2,35,NA,NA,NA,1,Choose,10,0.555555556,0.625,12,0.666666667,60,Doctoral Degree (e.g. PhD; DClinPsy),English/Welsh/Scottish/Northern Irish/British,Christian,Female,0,0,4,28957.12,1,Competative,Individual,10,6,8,2,6,4,Competative,3,15
269,,Prosocial,17,1891.31,1,0,Option 2,35,NA,NA,NA,1,Choose,11,0.611111111,0.647058824,12,0.666666667,60,Doctoral Degree (e.g. PhD; DClinPsy),English/Welsh/Scottish/Northern Irish/British,Christian,Female,0,0,4,28957.12,2,Competative,Prosocial,9,5,9,9,0,4,Prosocial,1,15
270,,Prosocial,18,3224.06,1,0,Option 2,35,NA,NA,NA,1,Choose,12,0.666666667,0.666666667,12,0.666666667,60,Doctoral Degree (e.g. PhD; DClinPsy),English/Welsh/Scottish/Northern Irish/British,Christian,Female,0,0,4,28957.12,2,Competative,Individual,8,2,9,5,6,4,Individual,2,15
271,,Competative,1,3137.235,0,1,Option 1,74,NA,NA,NA,1,Choose,0,0,0,9,0.5,30,Undergraduate Degree (e.g. BSc; MBBS),English/Welsh/Scottish/Northern Irish/British,Atheist,Female,2,8,3,16868.03,2,Prosocial,Individual,7,7,10,5,0,5,Individual,2,16
272,,Competative,2,2686.735,1,0,Option 2,74,NA,NA,NA,1,Choose,1,0.055555556,0.5,9,0.5,30,Undergraduate Degree (e.g. BSc; MBBS),English/Welsh/Scottish/Northern Irish/British,Atheist,Female,2,8,3,16868.03,2,Competative,Individual,8,2,9,5,6,4,Individual,2,16
273,,Competative,3,1817.12,0,1,Option 2,74,NA,NA,NA,1,Choose,1,0.055555556,0.333333333,9,0.5,30,Undergraduate Degree (e.g. BSc; MBBS),English/Welsh/Scottish/Northern Irish/British,Atheist,Female,2,8,3,16868.03,1,Individual,Prosocial,12,5,10,10,0,7,Individual,2,16
274,,Competative,4,774.54,1,0,Option 1,74,NA,NA,NA,1,Choose,2,0.111111111,0.5,9,0.5,30,Undergraduate Degree (e.g. BSc; MBBS),English/Welsh/Scottish/Northern Irish/British,Atheist,Female,2,8,3,16868.03,1,Prosocial,Competative,6,6,6,2,0,4,Prosocial,1,16
275,,Competative,5,1081.475,0,1,Option 2,74,NA,NA,NA,1,Choose,2,0.111111111,0.4,9,0.5,30,Undergraduate Degree (e.g. BSc; MBBS),English/Welsh/Scottish/Northern Irish/British,Atheist,Female,2,8,3,16868.03,1,Competative,Individual,12,6,10,2,8,6,Competative,3,16
276,,Competative,6,1561.485,0,1,Option 2,74,NA,NA,NA,1,Choose,2,0.111111111,0.333333333,9,0.5,30,Undergraduate Degree (e.g. BSc; MBBS),English/Welsh/Scottish/Northern Irish/British,Atheist,Female,2,8,3,16868.03,1,Competative,Individual,10,6,8,2,6,4,Competative,3,16
277,,Competative,7,700.45,0,1,Option 2,74,NA,NA,NA,1,Choose,2,0.111111111,0.285714286,9,0.5,30,Undergraduate Degree (e.g. BSc; MBBS),English/Welsh/Scottish/Northern Irish/British,Atheist,Female,2,8,3,16868.03,1,Individual,Prosocial,12,5,8,8,0,7,Individual,2,16
278,,Competative,8,964.395,1,0,Option 2,74,NA,NA,NA,1,Choose,3,0.166666667,0.375,9,0.5,30,Undergraduate Degree (e.g. BSc; MBBS),English/Welsh/Scottish/Northern Irish/British,Atheist,Female,2,8,3,16868.03,2,Competative,Individual,6,2,8,5,4,3,Individual,2,16
279,,Competative,9,1439.4,1,0,Option 2,74,NA,NA,NA,1,Choose,4,0.222222222,0.444444444,9,0.5,30,Undergraduate Degree (e.g. BSc; MBBS),English/Welsh/Scottish/Northern Irish/British,Atheist,Female,2,8,3,16868.03,2,Competative,Prosocial,10,5,10,10,0,5,Prosocial,1,16
280,,Competative,10,1927.47,1,0,Option 1,74,NA,NA,NA,1,Choose,5,0.277777778,0.5,9,0.5,30,Undergraduate Degree (e.g. BSc; MBBS),English/Welsh/Scottish/Northern Irish/British,Atheist,Female,2,8,3,16868.03,1,Prosocial,Competative,7,7,7,2,0,5,Prosocial,1,16
281,,Competative,11,1672.26,0,1,Option 2,74,NA,NA,NA,1,Choose,5,0.277777778,0.454545455,9,0.5,30,Undergraduate Degree (e.g. BSc; MBBS),English/Welsh/Scottish/Northern Irish/British,Atheist,Female,2,8,3,16868.03,1,Individual,Prosocial,12,5,9,9,0,7,Individual,2,16
282,,Competative,12,1102.94,1,0,Option 2,74,NA,NA,NA,1,Choose,6,0.333333333,0.5,9,0.5,30,Undergraduate Degree (e.g. BSc; MBBS),English/Welsh/Scottish/Northern Irish/British,Atheist,Female,2,8,3,16868.03,2,Competative,Prosocial,9,5,9,9,0,4,Prosocial,1,16
283,,Competative,13,728.935,0,1,Option 1,74,NA,NA,NA,1,Choose,6,0.333333333,0.461538462,9,0.5,30,Undergraduate Degree (e.g. BSc; MBBS),English/Welsh/Scottish/Northern Irish/British,Atheist,Female,2,8,3,16868.03,2,Prosocial,Individual,6,6,10,5,0,5,Individual,2,16
284,,Competative,14,910.915,1,0,Option 1,74,NA,NA,NA,1,Choose,7,0.388888889,0.5,9,0.5,30,Undergraduate Degree (e.g. BSc; MBBS),English/Welsh/Scottish/Northern Irish/British,Atheist,Female,2,8,3,16868.03,1,Prosocial,Competative,8,8,8,2,0,6,Prosocial,1,16
285,,Competative,15,764.625,0,1,Option 2,74,NA,NA,NA,1,Choose,7,0.388888889,0.466666667,9,0.5,30,Undergraduate Degree (e.g. BSc; MBBS),English/Welsh/Scottish/Northern Irish/British,Atheist,Female,2,8,3,16868.03,1,Competative,Individual,11,6,9,2,7,5,Competative,3,16
286,,Competative,16,1034.865,1,0,Option 2,74,NA,NA,NA,1,Choose,8,0.444444444,0.5,9,0.5,30,Undergraduate Degree (e.g. BSc; MBBS),English/Welsh/Scottish/Northern Irish/British,Atheist,Female,2,8,3,16868.03,2,Competative,Prosocial,8,5,8,8,0,3,Prosocial,1,16
287,,Competative,17,846.925,0,1,Option 1,74,NA,NA,NA,1,Choose,8,0.444444444,0.470588235,9,0.5,30,Undergraduate Degree (e.g. BSc; MBBS),English/Welsh/Scottish/Northern Irish/British,Atheist,Female,2,8,3,16868.03,2,Prosocial,Individual,8,8,10,5,0,5,Individual,2,16
288,,Competative,18,616.32,1,0,Option 2,74,NA,NA,NA,1,Choose,9,0.5,0.5,9,0.5,30,Undergraduate Degree (e.g. BSc; MBBS),English/Welsh/Scottish/Northern Irish/British,Atheist,Female,2,8,3,16868.03,2,Competative,Individual,7,2,8,5,5,3,Individual,2,16
289,,Individualist,1,3160,1,0,Option 1,71,NA,NA,NA,0,Choose,1,0.055555556,1,12,0.666666667,71,College/Sixth Form (A level or equivalent),"""White""",Christian,Female,3,7,2,33582,1,Prosocial,Individual,8,8,10,5,0,5,Prosocial,1,17
290,,Individualist,2,10570,1,0,Option 2,71,NA,NA,NA,0,Choose,2,0.111111111,1,12,0.666666667,71,College/Sixth Form (A level or equivalent),"""White""",Christian,Female,3,7,2,33582,2,Competative,Individual,10,6,8,2,6,4,Individual,2,17
291,,Individualist,3,1839,1,0,Option 1,71,NA,NA,NA,0,Choose,3,0.166666667,1,12,0.666666667,71,College/Sixth Form (A level or equivalent),"""White""",Christian,Female,3,7,2,33582,1,Prosocial,Individual,7,7,10,5,0,5,Prosocial,1,17
292,,Individualist,4,4527,0,1,Option 2,71,NA,NA,NA,0,Choose,3,0.166666667,0.75,12,0.666666667,71,College/Sixth Form (A level or equivalent),"""White""",Christian,Female,3,7,2,33582,1,Individual,Prosocial,12,5,8,8,0,7,Individual,2,17
293,,Individualist,5,6696,0,1,Option 2,71,NA,NA,NA,0,Choose,3,0.166666667,0.6,12,0.666666667,71,College/Sixth Form (A level or equivalent),"""White""",Christian,Female,3,7,2,33582,1,Competative,Individual,7,2,8,5,5,3,Competative,3,17
294,,Individualist,6,4343,0,1,Option 1,71,NA,NA,NA,0,Choose,3,0.166666667,0.5,12,0.666666667,71,College/Sixth Form (A level or equivalent),"""White""",Christian,Female,3,7,2,33582,2,Prosocial,Competative,7,7,7,2,0,5,Competative,3,17
295,,Individualist,7,2596,1,0,Option 2,71,NA,NA,NA,0,Choose,4,0.222222222,0.571428571,12,0.666666667,71,College/Sixth Form (A level or equivalent),"""White""",Christian,Female,3,7,2,33582,2,Competative,Individual,6,2,8,5,4,3,Individual,2,17
296,,Individualist,8,1809,1,0,Option 1,71,NA,NA,NA,0,Choose,5,0.277777778,0.625,12,0.666666667,71,College/Sixth Form (A level or equivalent),"""White""",Christian,Female,3,7,2,33582,1,Prosocial,Individual,6,6,10,5,0,5,Prosocial,1,17
297,,Individualist,9,4258,1,0,Option 2,71,NA,NA,NA,0,Choose,6,0.333333333,0.666666667,12,0.666666667,71,College/Sixth Form (A level or equivalent),"""White""",Christian,Female,3,7,2,33582,2,Competative,Prosocial,9,5,9,9,0,4,Prosocial,1,17
298,,Individualist,10,3034,0,1,Option 2,71,NA,NA,NA,0,Choose,6,0.333333333,0.6,12,0.666666667,71,College/Sixth Form (A level or equivalent),"""White""",Christian,Female,3,7,2,33582,1,Competative,Individual,11,6,9,2,7,5,Competative,3,17
299,,Individualist,11,1650,1,0,Option 2,71,NA,NA,NA,0,Choose,7,0.388888889,0.636363636,12,0.666666667,71,College/Sixth Form (A level or equivalent),"""White""",Christian,Female,3,7,2,33582,2,Individual,Prosocial,12,5,10,10,0,7,Prosocial,1,17
300,,Individualist,12,5075,1,0,Option 2,71,NA,NA,NA,0,Choose,8,0.444444444,0.666666667,12,0.666666667,71,College/Sixth Form (A level or equivalent),"""White""",Christian,Female,3,7,2,33582,2,Competative,Individual,8,2,9,5,6,4,Individual,2,17
301,,Individualist,13,1958,0,1,Option 2,71,NA,NA,NA,0,Choose,8,0.444444444,0.615384615,12,0.666666667,71,College/Sixth Form (A level or equivalent),"""White""",Christian,Female,3,7,2,33582,1,Competative,Individual,12,6,10,2,8,6,Competative,3,17
302,,Individualist,14,1163,1,0,Option 1,71,NA,NA,NA,0,Choose,9,0.5,0.642857143,12,0.666666667,71,College/Sixth Form (A level or equivalent),"""White""",Christian,Female,3,7,2,33582,1,Prosocial,Competative,8,8,8,2,0,6,Prosocial,1,17
303,,Individualist,15,1580,1,0,Option 2,71,NA,NA,NA,0,Choose,10,0.555555556,0.666666667,12,0.666666667,71,College/Sixth Form (A level or equivalent),"""White""",Christian,Female,3,7,2,33582,2,Individual,Prosocial,12,5,9,9,0,7,Prosocial,1,17
304,,Individualist,16,3081,1,0,Option 2,71,NA,NA,NA,0,Choose,11,0.611111111,0.6875,12,0.666666667,71,College/Sixth Form (A level or equivalent),"""White""",Christian,Female,3,7,2,33582,2,Competative,Prosocial,10,5,10,10,0,5,Prosocial,1,17
305,,Individualist,17,3905,1,0,Option 1,71,NA,NA,NA,0,Choose,12,0.666666667,0.705882353,12,0.666666667,71,College/Sixth Form (A level or equivalent),"""White""",Christian,Female,3,7,2,33582,1,Prosocial,Competative,6,6,6,2,0,4,Prosocial,1,17
306,,Individualist,18,1459,0,1,Option 2,71,NA,NA,NA,0,Choose,12,0.666666667,0.666666667,12,0.666666667,71,College/Sixth Form (A level or equivalent),"""White""",Christian,Female,3,7,2,33582,1,Competative,Prosocial,8,5,8,8,0,3,Competative,3,17
307,,Competative,1,5372,0,1,Option 2,51,NA,NA,NA,1,Choose,0,0,0,14,0.777777778,55,College/Sixth Form (A level or equivalent),"""White""",Atheist,Male,0,0,4,18638.5,1,Competative,Individual,10,6,8,2,6,4,Competative,3,18
308,,Competative,2,2146,1,0,Option 1,51,NA,NA,NA,1,Choose,1,0.055555556,0.5,14,0.777777778,55,College/Sixth Form (A level or equivalent),"""White""",Atheist,Male,0,0,4,18638.5,1,Prosocial,Competative,6,6,6,2,0,4,Prosocial,1,18
309,,Competative,3,2576,1,0,Option 2,51,NA,NA,NA,1,Choose,2,0.111111111,0.666666667,14,0.777777778,55,College/Sixth Form (A level or equivalent),"""White""",Atheist,Male,0,0,4,18638.5,2,Competative,Individual,7,2,8,5,5,3,Individual,2,18
310,,Competative,4,3951,0,1,Option 2,51,NA,NA,NA,1,Choose,2,0.111111111,0.5,14,0.777777778,55,College/Sixth Form (A level or equivalent),"""White""",Atheist,Male,0,0,4,18638.5,1,Competative,Individual,11,6,9,2,7,5,Competative,3,18
311,,Competative,5,1337,1,0,Option 1,51,NA,NA,NA,1,Choose,3,0.166666667,0.6,14,0.777777778,55,College/Sixth Form (A level or equivalent),"""White""",Atheist,Male,0,0,4,18638.5,1,Prosocial,Competative,7,7,7,2,0,5,Prosocial,1,18
312,,Competative,6,2728,1,0,Option 2,51,NA,NA,NA,1,Choose,4,0.222222222,0.666666667,14,0.777777778,55,College/Sixth Form (A level or equivalent),"""White""",Atheist,Male,0,0,4,18638.5,2,Individual,Prosocial,12,5,10,10,0,7,Prosocial,1,18
313,,Competative,7,1473,1,0,Option 2,51,NA,NA,NA,1,Choose,5,0.277777778,0.714285714,14,0.777777778,55,College/Sixth Form (A level or equivalent),"""White""",Atheist,Male,0,0,4,18638.5,2,Competative,Prosocial,10,5,10,10,0,5,Prosocial,1,18
314,,Competative,8,1470,1,0,Option 2,51,NA,NA,NA,1,Choose,6,0.333333333,0.75,14,0.777777778,55,College/Sixth Form (A level or equivalent),"""White""",Atheist,Male,0,0,4,18638.5,2,Individual,Prosocial,12,5,9,9,0,7,Prosocial,1,18
315,,Competative,9,3248,0,1,Option 1,51,NA,NA,NA,1,Choose,6,0.333333333,0.666666667,14,0.777777778,55,College/Sixth Form (A level or equivalent),"""White""",Atheist,Male,0,0,4,18638.5,2,Prosocial,Individual,6,6,10,5,0,5,Individual,2,18
316,,Competative,10,1991,1,0,Option 1,51,NA,NA,NA,1,Choose,7,0.388888889,0.7,14,0.777777778,55,College/Sixth Form (A level or equivalent),"""White""",Atheist,Male,0,0,4,18638.5,1,Prosocial,Individual,8,8,10,5,0,5,Prosocial,1,18
317,,Competative,11,2365,1,0,Option 1,51,NA,NA,NA,1,Choose,8,0.444444444,0.727272727,14,0.777777778,55,College/Sixth Form (A level or equivalent),"""White""",Atheist,Male,0,0,4,18638.5,1,Prosocial,Individual,7,7,10,5,0,5,Prosocial,1,18
318,,Competative,12,1810,1,0,Option 2,51,NA,NA,NA,1,Choose,9,0.5,0.75,14,0.777777778,55,College/Sixth Form (A level or equivalent),"""White""",Atheist,Male,0,0,4,18638.5,2,Competative,Individual,8,2,9,5,6,4,Individual,2,18
319,,Competative,13,1351,1,0,Option 2,51,NA,NA,NA,1,Choose,10,0.555555556,0.769230769,14,0.777777778,55,College/Sixth Form (A level or equivalent),"""White""",Atheist,Male,0,0,4,18638.5,2,Competative,Prosocial,8,5,8,8,0,3,Prosocial,1,18
320,,Competative,14,2987,1,0,Option 1,51,NA,NA,NA,1,Choose,11,0.611111111,0.785714286,14,0.777777778,55,College/Sixth Form (A level or equivalent),"""White""",Atheist,Male,0,0,4,18638.5,1,Prosocial,Competative,8,8,8,2,0,6,Prosocial,1,18
321,,Competative,15,2024,1,0,Option 2,51,NA,NA,NA,1,Choose,12,0.666666667,0.8,14,0.777777778,55,College/Sixth Form (A level or equivalent),"""White""",Atheist,Male,0,0,4,18638.5,2,Competative,Individual,6,2,8,5,4,3,Individual,2,18
322,,Competative,16,2305,1,0,Option 2,51,NA,NA,NA,1,Choose,13,0.722222222,0.8125,14,0.777777778,55,College/Sixth Form (A level or equivalent),"""White""",Atheist,Male,0,0,4,18638.5,2,Individual,Prosocial,12,5,8,8,0,7,Prosocial,1,18
323,,Competative,17,1213,1,0,Option 2,51,NA,NA,NA,1,Choose,14,0.777777778,0.823529412,14,0.777777778,55,College/Sixth Form (A level or equivalent),"""White""",Atheist,Male,0,0,4,18638.5,2,Competative,Prosocial,9,5,9,9,0,4,Prosocial,1,18
324,,Competative,18,2355,0,1,Option 2,51,NA,NA,NA,1,Choose,14,0.777777778,0.777777778,14,0.777777778,55,College/Sixth Form (A level or equivalent),"""White""",Atheist,Male,0,0,4,18638.5,1,Competative,Individual,12,6,10,2,8,6,Competative,3,18
325,,Competative,1,12569.165,0,1,Option 2,100,NA,NA,NA,0,Choose,0,0,0,15,0.833333333,37,College/Sixth Form (A level or equivalent),English/Welsh/Scottish/Northern Irish/British,Christian,Male,0,2,4,28501.31,1,Competative,Individual,10,6,8,2,6,4,Competative,3,19
326,,Competative,2,3915.54,1,0,Option 2,100,NA,NA,NA,0,Choose,1,0.055555556,0.5,15,0.833333333,37,College/Sixth Form (A level or equivalent),English/Welsh/Scottish/Northern Irish/British,Christian,Male,0,2,4,28501.31,2,Competative,Prosocial,9,5,9,9,0,4,Prosocial,1,19
327,,Competative,3,2089.305,1,0,Option 1,100,NA,NA,NA,0,Choose,2,0.111111111,0.666666667,15,0.833333333,37,College/Sixth Form (A level or equivalent),English/Welsh/Scottish/Northern Irish/British,Christian,Male,0,2,4,28501.31,1,Prosocial,Competative,7,7,7,2,0,5,Prosocial,1,19
328,,Competative,4,2262.075,1,0,Option 1,100,NA,NA,NA,0,Choose,3,0.166666667,0.75,15,0.833333333,37,College/Sixth Form (A level or equivalent),English/Welsh/Scottish/Northern Irish/British,Christian,Male,0,2,4,28501.31,1,Prosocial,Individual,6,6,10,5,0,5,Prosocial,1,19
329,,Competative,5,2503.375,1,0,Option 2,100,NA,NA,NA,0,Choose,4,0.222222222,0.8,15,0.833333333,37,College/Sixth Form (A level or equivalent),English/Welsh/Scottish/Northern Irish/British,Christian,Male,0,2,4,28501.31,2,Competative,Individual,7,2,8,5,5,3,Individual,2,19
330,,Competative,6,1608.825,1,0,Option 2,100,NA,NA,NA,0,Choose,5,0.277777778,0.833333333,15,0.833333333,37,College/Sixth Form (A level or equivalent),English/Welsh/Scottish/Northern Irish/British,Christian,Male,0,2,4,28501.31,2,Competative,Prosocial,8,5,8,8,0,3,Prosocial,1,19
331,,Competative,7,2549.48,1,0,Option 1,100,NA,NA,NA,0,Choose,6,0.333333333,0.857142857,15,0.833333333,37,College/Sixth Form (A level or equivalent),English/Welsh/Scottish/Northern Irish/British,Christian,Male,0,2,4,28501.31,1,Prosocial,Individual,7,7,10,5,0,5,Prosocial,1,19
332,,Competative,8,1318.015,1,0,Option 1,100,NA,NA,NA,0,Choose,7,0.388888889,0.875,15,0.833333333,37,College/Sixth Form (A level or equivalent),English/Welsh/Scottish/Northern Irish/British,Christian,Male,0,2,4,28501.31,1,Prosocial,Competative,6,6,6,2,0,4,Prosocial,1,19
333,,Competative,9,1774.845,1,0,Option 2,100,NA,NA,NA,0,Choose,8,0.444444444,0.888888889,15,0.833333333,37,College/Sixth Form (A level or equivalent),English/Welsh/Scottish/Northern Irish/British,Christian,Male,0,2,4,28501.31,2,Individual,Prosocial,12,5,10,10,0,7,Prosocial,1,19
334,,Competative,10,1758.54,1,0,Option 2,100,NA,NA,NA,0,Choose,9,0.5,0.9,15,0.833333333,37,College/Sixth Form (A level or equivalent),English/Welsh/Scottish/Northern Irish/British,Christian,Male,0,2,4,28501.31,2,Individual,Prosocial,12,5,8,8,0,7,Prosocial,1,19
335,,Competative,11,1889.675,1,0,Option 2,100,NA,NA,NA,0,Choose,10,0.555555556,0.909090909,15,0.833333333,37,College/Sixth Form (A level or equivalent),English/Welsh/Scottish/Northern Irish/British,Christian,Male,0,2,4,28501.31,2,Competative,Individual,8,2,9,5,6,4,Individual,2,19
336,,Competative,12,2698.705,1,0,Option 2,100,NA,NA,NA,0,Choose,11,0.611111111,0.916666667,15,0.833333333,37,College/Sixth Form (A level or equivalent),English/Welsh/Scottish/Northern Irish/British,Christian,Male,0,2,4,28501.31,2,Competative,Individual,6,2,8,5,4,3,Individual,2,19
337,,Competative,13,1813.41,1,0,Option 2,100,NA,NA,NA,0,Choose,12,0.666666667,0.923076923,15,0.833333333,37,College/Sixth Form (A level or equivalent),English/Welsh/Scottish/Northern Irish/British,Christian,Male,0,2,4,28501.31,2,Individual,Prosocial,12,5,9,9,0,7,Prosocial,1,19
338,,Competative,14,2048.125,0,1,Option 2,100,NA,NA,NA,0,Choose,12,0.666666667,0.857142857,15,0.833333333,37,College/Sixth Form (A level or equivalent),English/Welsh/Scottish/Northern Irish/British,Christian,Male,0,2,4,28501.31,1,Competative,Individual,11,6,9,2,7,5,Competative,3,19
339,,Competative,15,1728.03,1,0,Option 2,100,NA,NA,NA,0,Choose,13,0.722222222,0.866666667,15,0.833333333,37,College/Sixth Form (A level or equivalent),English/Welsh/Scottish/Northern Irish/British,Christian,Male,0,2,4,28501.31,2,Competative,Prosocial,10,5,10,10,0,5,Prosocial,1,19
340,,Competative,16,1469.515,1,0,Option 1,100,NA,NA,NA,0,Choose,14,0.777777778,0.875,15,0.833333333,37,College/Sixth Form (A level or equivalent),English/Welsh/Scottish/Northern Irish/British,Christian,Male,0,2,4,28501.31,1,Prosocial,Competative,8,8,8,2,0,6,Prosocial,1,19
341,,Competative,17,1150.345,1,0,Option 1,100,NA,NA,NA,0,Choose,15,0.833333333,0.882352941,15,0.833333333,37,College/Sixth Form (A level or equivalent),English/Welsh/Scottish/Northern Irish/British,Christian,Male,0,2,4,28501.31,1,Prosocial,Individual,8,8,10,5,0,5,Prosocial,1,19
342,,Competative,18,4903.71,0,1,Option 2,100,NA,NA,NA,0,Choose,15,0.833333333,0.833333333,15,0.833333333,37,College/Sixth Form (A level or equivalent),English/Welsh/Scottish/Northern Irish/British,Christian,Male,0,2,4,28501.31,1,Competative,Individual,12,6,10,2,8,6,Competative,3,19
343,,Individualist,1,2633,1,0,Option 1,47,NA,NA,NA,1,Choose,1,0.055555556,1,15,0.833333333,31,College/Sixth Form (A level or equivalent),English/Welsh/Scottish/Northern Irish/British,Atheist,Female,0,7,9,50107.9,1,Prosocial,Competative,6,6,6,2,0,4,Prosocial,1,20
344,,Individualist,2,2669,1,0,Option 2,47,NA,NA,NA,1,Choose,2,0.111111111,1,15,0.833333333,31,College/Sixth Form (A level or equivalent),English/Welsh/Scottish/Northern Irish/British,Atheist,Female,0,7,9,50107.9,2,Individual,Prosocial,12,5,10,10,0,7,Prosocial,1,20
345,,Individualist,3,2009,1,0,Option 2,47,NA,NA,NA,1,Choose,3,0.166666667,1,15,0.833333333,31,College/Sixth Form (A level or equivalent),English/Welsh/Scottish/Northern Irish/British,Atheist,Female,0,7,9,50107.9,2,Competative,Prosocial,8,5,8,8,0,3,Prosocial,1,20
346,,Individualist,4,2732,1,0,Option 1,47,NA,NA,NA,1,Choose,4,0.222222222,1,15,0.833333333,31,College/Sixth Form (A level or equivalent),English/Welsh/Scottish/Northern Irish/British,Atheist,Female,0,7,9,50107.9,1,Prosocial,Individual,6,6,10,5,0,5,Prosocial,1,20
347,,Individualist,5,1521,1,0,Option 1,47,NA,NA,NA,1,Choose,5,0.277777778,1,15,0.833333333,31,College/Sixth Form (A level or equivalent),English/Welsh/Scottish/Northern Irish/British,Atheist,Female,0,7,9,50107.9,1,Prosocial,Competative,8,8,8,2,0,6,Prosocial,1,20
348,,Individualist,6,1147,1,0,Option 1,47,NA,NA,NA,1,Choose,6,0.333333333,1,15,0.833333333,31,College/Sixth Form (A level or equivalent),English/Welsh/Scottish/Northern Irish/British,Atheist,Female,0,7,9,50107.9,1,Prosocial,Competative,7,7,7,2,0,5,Prosocial,1,20
349,,Individualist,7,2276,1,0,Option 2,47,NA,NA,NA,1,Choose,7,0.388888889,1,15,0.833333333,31,College/Sixth Form (A level or equivalent),English/Welsh/Scottish/Northern Irish/British,Atheist,Female,0,7,9,50107.9,2,Competative,Individual,7,2,8,5,5,3,Individual,2,20
350,,Individualist,8,1543,1,0,Option 2,47,NA,NA,NA,1,Choose,8,0.444444444,1,15,0.833333333,31,College/Sixth Form (A level or equivalent),English/Welsh/Scottish/Northern Irish/British,Atheist,Female,0,7,9,50107.9,2,Individual,Prosocial,12,5,8,8,0,7,Prosocial,1,20
351,,Individualist,9,1664,1,0,Option 2,47,NA,NA,NA,1,Choose,9,0.5,1,15,0.833333333,31,College/Sixth Form (A level or equivalent),English/Welsh/Scottish/Northern Irish/British,Atheist,Female,0,7,9,50107.9,2,Individual,Prosocial,12,5,9,9,0,7,Prosocial,1,20
352,,Individualist,10,2000,0,1,Option 2,47,NA,NA,NA,1,Choose,9,0.5,0.9,15,0.833333333,31,College/Sixth Form (A level or equivalent),English/Welsh/Scottish/Northern Irish/British,Atheist,Female,0,7,9,50107.9,1,Competative,Individual,12,6,10,2,8,6,Competative,3,20
353,,Individualist,11,1435,1,0,Option 1,47,NA,NA,NA,1,Choose,10,0.555555556,0.909090909,15,0.833333333,31,College/Sixth Form (A level or equivalent),English/Welsh/Scottish/Northern Irish/British,Atheist,Female,0,7,9,50107.9,1,Prosocial,Individual,8,8,10,5,0,5,Prosocial,1,20
354,,Individualist,12,1323,1,0,Option 2,47,NA,NA,NA,1,Choose,11,0.611111111,0.916666667,15,0.833333333,31,College/Sixth Form (A level or equivalent),English/Welsh/Scottish/Northern Irish/British,Atheist,Female,0,7,9,50107.9,2,Competative,Prosocial,10,5,10,10,0,5,Prosocial,1,20
355,,Individualist,13,2588,0,1,Option 2,47,NA,NA,NA,1,Choose,11,0.611111111,0.846153846,15,0.833333333,31,College/Sixth Form (A level or equivalent),English/Welsh/Scottish/Northern Irish/British,Atheist,Female,0,7,9,50107.9,1,Competative,Individual,11,6,9,2,7,5,Competative,3,20
356,,Individualist,14,1096,1,0,Option 2,47,NA,NA,NA,1,Choose,12,0.666666667,0.857142857,15,0.833333333,31,College/Sixth Form (A level or equivalent),English/Welsh/Scottish/Northern Irish/British,Atheist,Female,0,7,9,50107.9,2,Competative,Prosocial,9,5,9,9,0,4,Prosocial,1,20
357,,Individualist,15,1377,1,0,Option 2,47,NA,NA,NA,1,Choose,13,0.722222222,0.866666667,15,0.833333333,31,College/Sixth Form (A level or equivalent),English/Welsh/Scottish/Northern Irish/British,Atheist,Female,0,7,9,50107.9,2,Competative,Individual,6,2,8,5,4,3,Individual,2,20
358,,Individualist,16,1483,1,0,Option 1,47,NA,NA,NA,1,Choose,14,0.777777778,0.875,15,0.833333333,31,College/Sixth Form (A level or equivalent),English/Welsh/Scottish/Northern Irish/British,Atheist,Female,0,7,9,50107.9,1,Prosocial,Individual,7,7,10,5,0,5,Prosocial,1,20
359,,Individualist,17,3318,0,1,Option 2,47,NA,NA,NA,1,Choose,14,0.777777778,0.823529412,15,0.833333333,31,College/Sixth Form (A level or equivalent),English/Welsh/Scottish/Northern Irish/British,Atheist,Female,0,7,9,50107.9,1,Competative,Individual,10,6,8,2,6,4,Competative,3,20
360,,Individualist,18,1781,1,0,Option 2,47,NA,NA,NA,1,Choose,15,0.833333333,0.833333333,15,0.833333333,31,College/Sixth Form (A level or equivalent),English/Welsh/Scottish/Northern Irish/British,Atheist,Female,0,7,9,50107.9,2,Competative,Individual,8,2,9,5,6,4,Individual,2,20
361,,Competative,1,2503,1,0,Option 1,100,NA,NA,NA,1,Choose,1,0.055555556,1,13,0.722222222,38,Undergraduate Degree (e.g. BSc; MBBS),"""White""",Christian,Female,15,27,5,24635.1,1,Prosocial,Individual,6,6,10,5,0,5,Prosocial,1,21
362,,Competative,2,3278,1,0,Option 1,100,NA,NA,NA,1,Choose,2,0.111111111,1,13,0.722222222,38,Undergraduate Degree (e.g. BSc; MBBS),"""White""",Christian,Female,15,27,5,24635.1,1,Prosocial,Competative,7,7,7,2,0,5,Prosocial,1,21
363,,Competative,3,1541,1,0,Option 1,100,NA,NA,NA,1,Choose,3,0.166666667,1,13,0.722222222,38,Undergraduate Degree (e.g. BSc; MBBS),"""White""",Christian,Female,15,27,5,24635.1,1,Prosocial,Competative,6,6,6,2,0,4,Prosocial,1,21
364,,Competative,4,2912,1,0,Option 2,100,NA,NA,NA,1,Choose,4,0.222222222,1,13,0.722222222,38,Undergraduate Degree (e.g. BSc; MBBS),"""White""",Christian,Female,15,27,5,24635.1,2,Individual,Prosocial,12,5,10,10,0,7,Prosocial,1,21
365,,Competative,5,2596,0,1,Option 2,100,NA,NA,NA,1,Choose,4,0.222222222,0.8,13,0.722222222,38,Undergraduate Degree (e.g. BSc; MBBS),"""White""",Christian,Female,15,27,5,24635.1,1,Competative,Individual,11,6,9,2,7,5,Competative,3,21
366,,Competative,6,2274,1,0,Option 2,100,NA,NA,NA,1,Choose,5,0.277777778,0.833333333,13,0.722222222,38,Undergraduate Degree (e.g. BSc; MBBS),"""White""",Christian,Female,15,27,5,24635.1,2,Competative,Prosocial,10,5,10,10,0,5,Prosocial,1,21
367,,Competative,7,2471,1,0,Option 2,100,NA,NA,NA,1,Choose,6,0.333333333,0.857142857,13,0.722222222,38,Undergraduate Degree (e.g. BSc; MBBS),"""White""",Christian,Female,15,27,5,24635.1,2,Competative,Individual,8,2,9,5,6,4,Individual,2,21
368,,Competative,8,2491,1,0,Option 2,100,NA,NA,NA,1,Choose,7,0.388888889,0.875,13,0.722222222,38,Undergraduate Degree (e.g. BSc; MBBS),"""White""",Christian,Female,15,27,5,24635.1,2,Competative,Prosocial,9,5,9,9,0,4,Prosocial,1,21
369,,Competative,9,2547,1,0,Option 2,100,NA,NA,NA,1,Choose,8,0.444444444,0.888888889,13,0.722222222,38,Undergraduate Degree (e.g. BSc; MBBS),"""White""",Christian,Female,15,27,5,24635.1,2,Individual,Prosocial,12,5,9,9,0,7,Prosocial,1,21
370,,Competative,10,2284,0,1,Option 1,100,NA,NA,NA,1,Choose,8,0.444444444,0.8,13,0.722222222,38,Undergraduate Degree (e.g. BSc; MBBS),"""White""",Christian,Female,15,27,5,24635.1,2,Prosocial,Individual,7,7,10,5,0,5,Individual,2,21
371,,Competative,11,2239,0,1,Option 2,100,NA,NA,NA,1,Choose,8,0.444444444,0.727272727,13,0.722222222,38,Undergraduate Degree (e.g. BSc; MBBS),"""White""",Christian,Female,15,27,5,24635.1,1,Competative,Individual,10,6,8,2,6,4,Competative,3,21
372,,Competative,12,1956,1,0,Option 2,100,NA,NA,NA,1,Choose,9,0.5,0.75,13,0.722222222,38,Undergraduate Degree (e.g. BSc; MBBS),"""White""",Christian,Female,15,27,5,24635.1,2,Competative,Prosocial,8,5,8,8,0,3,Prosocial,1,21
373,,Competative,13,1668,0,1,Option 1,100,NA,NA,NA,1,Choose,9,0.5,0.692307692,13,0.722222222,38,Undergraduate Degree (e.g. BSc; MBBS),"""White""",Christian,Female,15,27,5,24635.1,2,Prosocial,Competative,8,8,8,2,0,6,Competative,3,21
374,,Competative,14,1253,1,0,Option 1,100,NA,NA,NA,1,Choose,10,0.555555556,0.714285714,13,0.722222222,38,Undergraduate Degree (e.g. BSc; MBBS),"""White""",Christian,Female,15,27,5,24635.1,1,Prosocial,Individual,8,8,10,5,0,5,Prosocial,1,21
375,,Competative,15,2544,1,0,Option 2,100,NA,NA,NA,1,Choose,11,0.611111111,0.733333333,13,0.722222222,38,Undergraduate Degree (e.g. BSc; MBBS),"""White""",Christian,Female,15,27,5,24635.1,2,Competative,Individual,7,2,8,5,5,3,Individual,2,21
376,,Competative,16,1878,1,0,Option 2,100,NA,NA,NA,1,Choose,12,0.666666667,0.75,13,0.722222222,38,Undergraduate Degree (e.g. BSc; MBBS),"""White""",Christian,Female,15,27,5,24635.1,2,Competative,Individual,6,2,8,5,4,3,Individual,2,21
377,,Competative,17,2351,0,1,Option 2,100,NA,NA,NA,1,Choose,12,0.666666667,0.705882353,13,0.722222222,38,Undergraduate Degree (e.g. BSc; MBBS),"""White""",Christian,Female,15,27,5,24635.1,1,Competative,Individual,12,6,10,2,8,6,Competative,3,21
378,,Competative,18,2187,1,0,Option 2,100,NA,NA,NA,1,Choose,13,0.722222222,0.722222222,13,0.722222222,38,Undergraduate Degree (e.g. BSc; MBBS),"""White""",Christian,Female,15,27,5,24635.1,2,Individual,Prosocial,12,5,8,8,0,7,Prosocial,1,21
379,,Prosocial,1,10051.435,0,1,Option 2,100,NA,NA,NA,1,Choose,0,0,0,13,0.722222222,60,Doctoral Degree (e.g. PhD; DClinPsy),Irish,Atheist,Female,0,1,5,155947.58,1,Competative,Individual,10,6,8,2,6,4,Competative,3,22
380,,Prosocial,2,2080.07,1,0,Option 1,100,NA,NA,NA,1,Choose,1,0.055555556,0.5,13,0.722222222,60,Doctoral Degree (e.g. PhD; DClinPsy),Irish,Atheist,Female,0,1,5,155947.58,1,Prosocial,Competative,6,6,6,2,0,4,Prosocial,1,22
381,,Prosocial,3,5315.44,0,1,Option 2,100,NA,NA,NA,1,Choose,1,0.055555556,0.333333333,13,0.722222222,60,Doctoral Degree (e.g. PhD; DClinPsy),Irish,Atheist,Female,0,1,5,155947.58,1,Individual,Prosocial,12,5,8,8,0,7,Individual,2,22
382,,Prosocial,4,1911.525,0,1,Option 2,100,NA,NA,NA,1,Choose,1,0.055555556,0.25,13,0.722222222,60,Doctoral Degree (e.g. PhD; DClinPsy),Irish,Atheist,Female,0,1,5,155947.58,1,Competative,Individual,12,6,10,2,8,6,Competative,3,22
383,,Prosocial,5,1664.185,1,0,Option 2,100,NA,NA,NA,1,Choose,2,0.111111111,0.4,13,0.722222222,60,Doctoral Degree (e.g. PhD; DClinPsy),Irish,Atheist,Female,0,1,5,155947.58,2,Competative,Prosocial,9,5,9,9,0,4,Prosocial,1,22
384,,Prosocial,6,2811.505,1,0,Option 1,100,NA,NA,NA,1,Choose,3,0.166666667,0.5,13,0.722222222,60,Doctoral Degree (e.g. PhD; DClinPsy),Irish,Atheist,Female,0,1,5,155947.58,1,Prosocial,Individual,8,8,10,5,0,5,Prosocial,1,22
385,,Prosocial,7,1743.9,1,0,Option 2,100,NA,NA,NA,1,Choose,4,0.222222222,0.571428571,13,0.722222222,60,Doctoral Degree (e.g. PhD; DClinPsy),Irish,Atheist,Female,0,1,5,155947.58,2,Individual,Prosocial,12,5,10,10,0,7,Prosocial,1,22
386,,Prosocial,8,1480.605,1,0,Option 1,100,NA,NA,NA,1,Choose,5,0.277777778,0.625,13,0.722222222,60,Doctoral Degree (e.g. PhD; DClinPsy),Irish,Atheist,Female,0,1,5,155947.58,1,Prosocial,Competative,7,7,7,2,0,5,Prosocial,1,22
387,,Prosocial,9,1756.365,0,1,Option 1,100,NA,NA,NA,1,Choose,5,0.277777778,0.555555556,13,0.722222222,60,Doctoral Degree (e.g. PhD; DClinPsy),Irish,Atheist,Female,0,1,5,155947.58,2,Prosocial,Individual,7,7,10,5,0,5,Individual,2,22
388,,Prosocial,10,1813.65,1,0,Option 1,100,NA,NA,NA,1,Choose,6,0.333333333,0.6,13,0.722222222,60,Doctoral Degree (e.g. PhD; DClinPsy),Irish,Atheist,Female,0,1,5,155947.58,1,Prosocial,Individual,6,6,10,5,0,5,Prosocial,1,22
389,,Prosocial,11,1588.645,1,0,Option 2,100,NA,NA,NA,1,Choose,7,0.388888889,0.636363636,13,0.722222222,60,Doctoral Degree (e.g. PhD; DClinPsy),Irish,Atheist,Female,0,1,5,155947.58,2,Individual,Prosocial,12,5,9,9,0,7,Prosocial,1,22
390,,Prosocial,12,1726.935,1,0,Option 2,100,NA,NA,NA,1,Choose,8,0.444444444,0.666666667,13,0.722222222,60,Doctoral Degree (e.g. PhD; DClinPsy),Irish,Atheist,Female,0,1,5,155947.58,2,Competative,Individual,6,2,8,5,4,3,Individual,2,22
391,,Prosocial,13,3083.22,1,0,Option 2,100,NA,NA,NA,1,Choose,9,0.5,0.692307692,13,0.722222222,60,Doctoral Degree (e.g. PhD; DClinPsy),Irish,Atheist,Female,0,1,5,155947.58,2,Competative,Individual,8,2,9,5,6,4,Individual,2,22
392,,Prosocial,14,1423.895,1,0,Option 2,100,NA,NA,NA,1,Choose,10,0.555555556,0.714285714,13,0.722222222,60,Doctoral Degree (e.g. PhD; DClinPsy),Irish,Atheist,Female,0,1,5,155947.58,2,Competative,Prosocial,10,5,10,10,0,5,Prosocial,1,22
