PartnerPolicy,Trial,Intentions_RT,Agency,Control,Game,Age,Education,Ethnicity,Religion,Sex,Persec,SocRef,ICARTot,ICARrt,Response,Type1,Type2,Option1_PPT,Option1_Partner,Option2_PPT,Option2_Partner,Diff1,Diff2,Choice,ChoiceAction,id
Competative,1,2550.895,3,0,Choose,57,Undergraduate Degree (e.g. BSc; MBBS),English/Welsh/Scottish/Northern Irish/British,Spiritualist,Female,0,0,3,19427.39,1,Prosocial,Individual,8,8,10,5,0,5,Prosocial,1,1
Competative,2,9468.275,3,0,Choose,57,Undergraduate Degree (e.g. BSc; MBBS),English/Welsh/Scottish/Northern Irish/British,Spiritualist,Female,0,0,3,19427.39,2,Individual,Prosocial,12,5,8,8,0,7,Prosocial,1,1
Competative,3,5580.885,3,0,Choose,57,Undergraduate Degree (e.g. BSc; MBBS),English/Welsh/Scottish/Northern Irish/British,Spiritualist,Female,0,0,3,19427.39,1,Individual,Competative,10,6,8,2,6,4,Individual,2,1
Competative,4,3610.2,3,0,Choose,57,Undergraduate Degree (e.g. BSc; MBBS),English/Welsh/Scottish/Northern Irish/British,Spiritualist,Female,0,0,3,19427.39,1,Individual,Competative,12,6,10,2,8,6,Individual,2,1
Competative,5,2334.675,3,0,Choose,57,Undergraduate Degree (e.g. BSc; MBBS),English/Welsh/Scottish/Northern Irish/British,Spiritualist,Female,0,0,3,19427.39,2,Competative,Prosocial,9,5,9,9,0,4,Prosocial,1,1
Competative,6,2392.835,3,0,Choose,57,Undergraduate Degree (e.g. BSc; MBBS),English/Welsh/Scottish/Northern Irish/British,Spiritualist,Female,0,0,3,19427.39,2,Individual,Prosocial,12,5,9,9,0,7,Prosocial,1,1
Competative,7,2069.25,3,0,Choose,57,Undergraduate Degree (e.g. BSc; MBBS),English/Welsh/Scottish/Northern Irish/British,Spiritualist,Female,0,0,3,19427.39,1,Prosocial,Competative,8,8,8,2,0,6,Prosocial,1,1
Competative,8,1453.11,3,0,Choose,57,Undergraduate Degree (e.g. BSc; MBBS),English/Welsh/Scottish/Northern Irish/British,Spiritualist,Female,0,0,3,19427.39,1,Prosocial,Competative,6,6,6,2,0,4,Prosocial,1,1
Competative,9,1764.82,3,0,Choose,57,Undergraduate Degree (e.g. BSc; MBBS),English/Welsh/Scottish/Northern Irish/British,Spiritualist,Female,0,0,3,19427.39,1,Prosocial,Individual,6,6,10,5,0,5,Prosocial,1,1
Competative,10,2956.915,3,0,Choose,57,Undergraduate Degree (e.g. BSc; MBBS),English/Welsh/Scottish/Northern Irish/British,Spiritualist,Female,0,0,3,19427.39,2,Competative,Individual,7,2,8,5,5,3,Individual,2,1
Competative,11,1452.76,3,0,Choose,57,Undergraduate Degree (e.g. BSc; MBBS),English/Welsh/Scottish/Northern Irish/British,Spiritualist,Female,0,0,3,19427.39,2,Competative,Prosocial,10,5,10,10,0,5,Prosocial,1,1
Competative,12,1842.83,3,0,Choose,57,Undergraduate Degree (e.g. BSc; MBBS),English/Welsh/Scottish/Northern Irish/British,Spiritualist,Female,0,0,3,19427.39,1,Prosocial,Competative,7,7,7,2,0,5,Prosocial,1,1
Competative,13,2079.67,3,0,Choose,57,Undergraduate Degree (e.g. BSc; MBBS),English/Welsh/Scottish/Northern Irish/British,Spiritualist,Female,0,0,3,19427.39,2,Competative,Prosocial,8,5,8,8,0,3,Prosocial,1,1
Competative,14,2352.455,3,0,Choose,57,Undergraduate Degree (e.g. BSc; MBBS),English/Welsh/Scottish/Northern Irish/British,Spiritualist,Female,0,0,3,19427.39,2,Competative,Individual,8,2,9,5,6,4,Individual,2,1
Competative,15,1810.71,3,0,Choose,57,Undergraduate Degree (e.g. BSc; MBBS),English/Welsh/Scottish/Northern Irish/British,Spiritualist,Female,0,0,3,19427.39,2,Individual,Prosocial,12,5,10,10,0,7,Prosocial,1,1
Competative,16,2162.505,3,0,Choose,57,Undergraduate Degree (e.g. BSc; MBBS),English/Welsh/Scottish/Northern Irish/British,Spiritualist,Female,0,0,3,19427.39,1,Individual,Competitive,11,6,9,2,7,5,Individual,2,1
Competative,17,2571.84,3,0,Choose,57,Undergraduate Degree (e.g. BSc; MBBS),English/Welsh/Scottish/Northern Irish/British,Spiritualist,Female,0,0,3,19427.39,2,Competative,Individual,6,2,8,5,4,3,Individual,2,1
Competative,18,1751.775,3,0,Choose,57,Undergraduate Degree (e.g. BSc; MBBS),English/Welsh/Scottish/Northern Irish/British,Spiritualist,Female,0,0,3,19427.39,1,Prosocial,Individual,7,7,10,5,0,5,Prosocial,1,1
Prosocial,1,2103.035,78,1,Choose,31,College/Sixth Form (A level or equivalent),"""White""",Atheist,Female,17,28,3,7887.37,1,Individual,Competative,12,6,10,2,8,6,Individual,2,2
Prosocial,2,1542.47,78,1,Choose,31,College/Sixth Form (A level or equivalent),"""White""",Atheist,Female,17,28,3,7887.37,1,Prosocial,Competative,8,8,8,2,0,6,Prosocial,1,2
Prosocial,3,1205.185,78,1,Choose,31,College/Sixth Form (A level or equivalent),"""White""",Atheist,Female,17,28,3,7887.37,1,Individual,Prosocial,12,5,8,8,0,7,Individual,2,2
Prosocial,4,1685.56,78,1,Choose,31,College/Sixth Form (A level or equivalent),"""White""",Atheist,Female,17,28,3,7887.37,1,Prosocial,Competative,6,6,6,2,0,4,Prosocial,1,2
Prosocial,5,2007.515,78,1,Choose,31,College/Sixth Form (A level or equivalent),"""White""",Atheist,Female,17,28,3,7887.37,2,Individual,Competative,10,6,8,2,6,4,Competative,3,2
Prosocial,6,2311.16,78,1,Choose,31,College/Sixth Form (A level or equivalent),"""White""",Atheist,Female,17,28,3,7887.37,1,Individual,Prosocial,12,5,9,9,0,7,Individual,2,2
Prosocial,7,1507.445,78,1,Choose,31,College/Sixth Form (A level or equivalent),"""White""",Atheist,Female,17,28,3,7887.37,1,Competative,Prosocial,8,5,8,8,0,3,Competative,3,2
Prosocial,8,1070.34,78,1,Choose,31,College/Sixth Form (A level or equivalent),"""White""",Atheist,Female,17,28,3,7887.37,1,Prosocial,Competative,7,7,7,2,0,5,Prosocial,1,2
Prosocial,9,1222.705,78,1,Choose,31,College/Sixth Form (A level or equivalent),"""White""",Atheist,Female,17,28,3,7887.37,2,Competative,Individual,7,2,8,5,5,3,Individual,2,2
Prosocial,10,1326.44,78,1,Choose,31,College/Sixth Form (A level or equivalent),"""White""",Atheist,Female,17,28,3,7887.37,1,Individual,Competitive,11,6,9,2,7,5,Individual,2,2
Prosocial,11,1767.235,78,1,Choose,31,College/Sixth Form (A level or equivalent),"""White""",Atheist,Female,17,28,3,7887.37,2,Competative,Prosocial,9,5,9,9,0,4,Prosocial,1,2
Prosocial,12,1805.53,78,1,Choose,31,College/Sixth Form (A level or equivalent),"""White""",Atheist,Female,17,28,3,7887.37,2,Prosocial,Individual,7,7,10,5,0,5,Individual,2,2
Prosocial,13,1380.755,78,1,Choose,31,College/Sixth Form (A level or equivalent),"""White""",Atheist,Female,17,28,3,7887.37,2,Competative,Individual,6,2,8,5,4,3,Individual,2,2
Prosocial,14,1283,78,1,Choose,31,College/Sixth Form (A level or equivalent),"""White""",Atheist,Female,17,28,3,7887.37,2,Prosocial,Individual,8,8,10,5,0,5,Individual,2,2
Prosocial,15,1028.795,78,1,Choose,31,College/Sixth Form (A level or equivalent),"""White""",Atheist,Female,17,28,3,7887.37,2,Prosocial,Individual,6,6,10,5,0,5,Individual,2,2
Prosocial,16,1841.42,78,1,Choose,31,College/Sixth Form (A level or equivalent),"""White""",Atheist,Female,17,28,3,7887.37,1,Individual,Prosocial,12,5,10,10,0,7,Individual,2,2
Prosocial,17,1436.88,78,1,Choose,31,College/Sixth Form (A level or equivalent),"""White""",Atheist,Female,17,28,3,7887.37,2,Competative,Individual,8,2,9,5,6,4,Individual,2,2
Prosocial,18,1233.395,78,1,Choose,31,College/Sixth Form (A level or equivalent),"""White""",Atheist,Female,17,28,3,7887.37,2,Competative,Prosocial,10,5,10,10,0,5,Prosocial,1,2
Individualist,1,2312,2,1,Choose,38,Undergraduate Degree (e.g. BSc; MBBS),English/Welsh/Scottish/Northern Irish/British,Atheist,Female,20,22,3,20691,1,Prosocial,Individual,8,8,10,5,0,5,Prosocial,1,3
Individualist,2,3832,2,1,Choose,38,Undergraduate Degree (e.g. BSc; MBBS),English/Welsh/Scottish/Northern Irish/British,Atheist,Female,20,22,3,20691,2,Individual,Prosocial,12,5,8,8,0,7,Prosocial,1,3
Individualist,3,4840,2,1,Choose,38,Undergraduate Degree (e.g. BSc; MBBS),English/Welsh/Scottish/Northern Irish/British,Atheist,Female,20,22,3,20691,1,Individual,Competitive,11,6,9,2,7,5,Individual,2,3
Individualist,4,3846,2,1,Choose,38,Undergraduate Degree (e.g. BSc; MBBS),English/Welsh/Scottish/Northern Irish/British,Atheist,Female,20,22,3,20691,2,Prosocial,Individual,6,6,10,5,0,5,Individual,2,3
Individualist,5,2903,2,1,Choose,38,Undergraduate Degree (e.g. BSc; MBBS),English/Welsh/Scottish/Northern Irish/British,Atheist,Female,20,22,3,20691,2,Competative,Prosocial,10,5,10,10,0,5,Prosocial,1,3
Individualist,6,7759,2,1,Choose,38,Undergraduate Degree (e.g. BSc; MBBS),English/Welsh/Scottish/Northern Irish/British,Atheist,Female,20,22,3,20691,1,Individual,Competative,10,6,8,2,6,4,Individual,2,3
Individualist,7,3925,2,1,Choose,38,Undergraduate Degree (e.g. BSc; MBBS),English/Welsh/Scottish/Northern Irish/British,Atheist,Female,20,22,3,20691,1,Individual,Prosocial,12,5,9,9,0,7,Individual,2,3
Individualist,8,3613,2,1,Choose,38,Undergraduate Degree (e.g. BSc; MBBS),English/Welsh/Scottish/Northern Irish/British,Atheist,Female,20,22,3,20691,2,Competative,Individual,7,2,8,5,5,3,Individual,2,3
Individualist,9,4279,2,1,Choose,38,Undergraduate Degree (e.g. BSc; MBBS),English/Welsh/Scottish/Northern Irish/British,Atheist,Female,20,22,3,20691,2,Competative,Individual,6,2,8,5,4,3,Individual,2,3
Individualist,10,3020,2,1,Choose,38,Undergraduate Degree (e.g. BSc; MBBS),English/Welsh/Scottish/Northern Irish/British,Atheist,Female,20,22,3,20691,2,Prosocial,Competative,7,7,7,2,0,5,Competative,3,3
Individualist,11,4204,2,1,Choose,38,Undergraduate Degree (e.g. BSc; MBBS),English/Welsh/Scottish/Northern Irish/British,Atheist,Female,20,22,3,20691,2,Prosocial,Individual,7,7,10,5,0,5,Individual,2,3
Individualist,12,2367,2,1,Choose,38,Undergraduate Degree (e.g. BSc; MBBS),English/Welsh/Scottish/Northern Irish/British,Atheist,Female,20,22,3,20691,1,Individual,Competative,12,6,10,2,8,6,Individual,2,3
Individualist,13,4500,2,1,Choose,38,Undergraduate Degree (e.g. BSc; MBBS),English/Welsh/Scottish/Northern Irish/British,Atheist,Female,20,22,3,20691,1,Prosocial,Competative,6,6,6,2,0,4,Prosocial,1,3
Individualist,14,6279,2,1,Choose,38,Undergraduate Degree (e.g. BSc; MBBS),English/Welsh/Scottish/Northern Irish/British,Atheist,Female,20,22,3,20691,2,Competative,Individual,8,2,9,5,6,4,Individual,2,3
Individualist,15,2370,2,1,Choose,38,Undergraduate Degree (e.g. BSc; MBBS),English/Welsh/Scottish/Northern Irish/British,Atheist,Female,20,22,3,20691,1,Competative,Prosocial,8,5,8,8,0,3,Competative,3,3
Individualist,16,2229,2,1,Choose,38,Undergraduate Degree (e.g. BSc; MBBS),English/Welsh/Scottish/Northern Irish/British,Atheist,Female,20,22,3,20691,1,Competative,Prosocial,9,5,9,9,0,4,Competative,3,3
Individualist,17,4084,2,1,Choose,38,Undergraduate Degree (e.g. BSc; MBBS),English/Welsh/Scottish/Northern Irish/British,Atheist,Female,20,22,3,20691,1,Individual,Prosocial,12,5,10,10,0,7,Individual,2,3
Individualist,18,1950,2,1,Choose,38,Undergraduate Degree (e.g. BSc; MBBS),English/Welsh/Scottish/Northern Irish/British,Atheist,Female,20,22,3,20691,1,Prosocial,Competative,8,8,8,2,0,6,Prosocial,1,3
Competative,1,6443.53,99,1,Choose,39,Undergraduate Degree (e.g. BSc; MBBS),Chinese,Other (please specify),Female,15,6,7,40518.96,1,Prosocial,Individual,6,6,10,5,0,5,Prosocial,1,4
Competative,2,6403.075,99,1,Choose,39,Undergraduate Degree (e.g. BSc; MBBS),Chinese,Other (please specify),Female,15,6,7,40518.96,1,Individual,Competative,12,6,10,2,8,6,Individual,2,4
Competative,3,2483.59,99,1,Choose,39,Undergraduate Degree (e.g. BSc; MBBS),Chinese,Other (please specify),Female,15,6,7,40518.96,2,Competative,Prosocial,10,5,10,10,0,5,Prosocial,1,4
Competative,4,5320.82,99,1,Choose,39,Undergraduate Degree (e.g. BSc; MBBS),Chinese,Other (please specify),Female,15,6,7,40518.96,2,Competative,Individual,6,2,8,5,4,3,Individual,2,4
Competative,5,2047.405,99,1,Choose,39,Undergraduate Degree (e.g. BSc; MBBS),Chinese,Other (please specify),Female,15,6,7,40518.96,2,Individual,Prosocial,12,5,10,10,0,7,Prosocial,1,4
Competative,6,2854.03,99,1,Choose,39,Undergraduate Degree (e.g. BSc; MBBS),Chinese,Other (please specify),Female,15,6,7,40518.96,1,Prosocial,Competative,8,8,8,2,0,6,Prosocial,1,4
Competative,7,1517.955,99,1,Choose,39,Undergraduate Degree (e.g. BSc; MBBS),Chinese,Other (please specify),Female,15,6,7,40518.96,1,Prosocial,Competative,6,6,6,2,0,4,Prosocial,1,4
Competative,8,1609.585,99,1,Choose,39,Undergraduate Degree (e.g. BSc; MBBS),Chinese,Other (please specify),Female,15,6,7,40518.96,1,Prosocial,Individual,8,8,10,5,0,5,Prosocial,1,4
Competative,9,5129.44,99,1,Choose,39,Undergraduate Degree (e.g. BSc; MBBS),Chinese,Other (please specify),Female,15,6,7,40518.96,2,Competative,Individual,8,2,9,5,6,4,Individual,2,4
Competative,10,4625.61,99,1,Choose,39,Undergraduate Degree (e.g. BSc; MBBS),Chinese,Other (please specify),Female,15,6,7,40518.96,2,Individual,Prosocial,12,5,8,8,0,7,Prosocial,1,4
Competative,11,4967.555,99,1,Choose,39,Undergraduate Degree (e.g. BSc; MBBS),Chinese,Other (please specify),Female,15,6,7,40518.96,1,Individual,Competitive,11,6,9,2,7,5,Individual,2,4
Competative,12,1435.62,99,1,Choose,39,Undergraduate Degree (e.g. BSc; MBBS),Chinese,Other (please specify),Female,15,6,7,40518.96,2,Competative,Prosocial,8,5,8,8,0,3,Prosocial,1,4
Competative,13,2041.325,99,1,Choose,39,Undergraduate Degree (e.g. BSc; MBBS),Chinese,Other (please specify),Female,15,6,7,40518.96,2,Individual,Prosocial,12,5,9,9,0,7,Prosocial,1,4
Competative,14,1669.135,99,1,Choose,39,Undergraduate Degree (e.g. BSc; MBBS),Chinese,Other (please specify),Female,15,6,7,40518.96,1,Prosocial,Individual,7,7,10,5,0,5,Prosocial,1,4
Competative,15,1807.405,99,1,Choose,39,Undergraduate Degree (e.g. BSc; MBBS),Chinese,Other (please specify),Female,15,6,7,40518.96,1,Prosocial,Competative,7,7,7,2,0,5,Prosocial,1,4
Competative,16,6661.265,99,1,Choose,39,Undergraduate Degree (e.g. BSc; MBBS),Chinese,Other (please specify),Female,15,6,7,40518.96,1,Individual,Competative,10,6,8,2,6,4,Individual,2,4
Competative,17,1552.97,99,1,Choose,39,Undergraduate Degree (e.g. BSc; MBBS),Chinese,Other (please specify),Female,15,6,7,40518.96,2,Competative,Prosocial,9,5,9,9,0,4,Prosocial,1,4
Competative,18,2325.475,99,1,Choose,39,Undergraduate Degree (e.g. BSc; MBBS),Chinese,Other (please specify),Female,15,6,7,40518.96,2,Competative,Individual,7,2,8,5,5,3,Individual,2,4
Individualist,1,2731.345,16,1,Choose,34,Undergraduate Degree (e.g. BSc; MBBS),"""White""",Atheist,Female,1,5,3,10908.85,2,Competative,Prosocial,8,5,8,8,0,3,Prosocial,1,5
Individualist,2,5036.76,16,1,Choose,34,Undergraduate Degree (e.g. BSc; MBBS),"""White""",Atheist,Female,1,5,3,10908.85,1,Individual,Competative,12,6,10,2,8,6,Individual,2,5
Individualist,3,5214.605,16,1,Choose,34,Undergraduate Degree (e.g. BSc; MBBS),"""White""",Atheist,Female,1,5,3,10908.85,1,Individual,Competative,10,6,8,2,6,4,Individual,2,5
Individualist,4,1727.145,16,1,Choose,34,Undergraduate Degree (e.g. BSc; MBBS),"""White""",Atheist,Female,1,5,3,10908.85,2,Competative,Prosocial,10,5,10,10,0,5,Prosocial,1,5
Individualist,5,1360.04,16,1,Choose,34,Undergraduate Degree (e.g. BSc; MBBS),"""White""",Atheist,Female,1,5,3,10908.85,2,Competative,Prosocial,9,5,9,9,0,4,Prosocial,1,5
Individualist,6,1487.450001,16,1,Choose,34,Undergraduate Degree (e.g. BSc; MBBS),"""White""",Atheist,Female,1,5,3,10908.85,1,Prosocial,Competative,7,7,7,2,0,5,Prosocial,1,5
Individualist,7,1441.804999,16,1,Choose,34,Undergraduate Degree (e.g. BSc; MBBS),"""White""",Atheist,Female,1,5,3,10908.85,2,Individual,Prosocial,12,5,10,10,0,7,Prosocial,1,5
Individualist,8,2378.815,16,1,Choose,34,Undergraduate Degree (e.g. BSc; MBBS),"""White""",Atheist,Female,1,5,3,10908.85,2,Competative,Individual,6,2,8,5,4,3,Individual,2,5
Individualist,9,1334.545,16,1,Choose,34,Undergraduate Degree (e.g. BSc; MBBS),"""White""",Atheist,Female,1,5,3,10908.85,1,Prosocial,Competative,8,8,8,2,0,6,Prosocial,1,5
Individualist,10,1345.235,16,1,Choose,34,Undergraduate Degree (e.g. BSc; MBBS),"""White""",Atheist,Female,1,5,3,10908.85,1,Prosocial,Individual,7,7,10,5,0,5,Prosocial,1,5
Individualist,11,1114.63,16,1,Choose,34,Undergraduate Degree (e.g. BSc; MBBS),"""White""",Atheist,Female,1,5,3,10908.85,1,Prosocial,Competative,6,6,6,2,0,4,Prosocial,1,5
Individualist,12,4587.189999,16,1,Choose,34,Undergraduate Degree (e.g. BSc; MBBS),"""White""",Atheist,Female,1,5,3,10908.85,2,Competative,Individual,7,2,8,5,5,3,Individual,2,5
Individualist,13,1851.059999,16,1,Choose,34,Undergraduate Degree (e.g. BSc; MBBS),"""White""",Atheist,Female,1,5,3,10908.85,1,Individual,Competitive,11,6,9,2,7,5,Individual,2,5
Individualist,14,1174.375,16,1,Choose,34,Undergraduate Degree (e.g. BSc; MBBS),"""White""",Atheist,Female,1,5,3,10908.85,2,Individual,Prosocial,12,5,9,9,0,7,Prosocial,1,5
Individualist,15,1189.985,16,1,Choose,34,Undergraduate Degree (e.g. BSc; MBBS),"""White""",Atheist,Female,1,5,3,10908.85,1,Prosocial,Individual,6,6,10,5,0,5,Prosocial,1,5
Individualist,16,902.795,16,1,Choose,34,Undergraduate Degree (e.g. BSc; MBBS),"""White""",Atheist,Female,1,5,3,10908.85,1,Prosocial,Individual,8,8,10,5,0,5,Prosocial,1,5
Individualist,17,2953.895,16,1,Choose,34,Undergraduate Degree (e.g. BSc; MBBS),"""White""",Atheist,Female,1,5,3,10908.85,2,Competative,Individual,8,2,9,5,6,4,Individual,2,5
Individualist,18,849.9849997,16,1,Choose,34,Undergraduate Degree (e.g. BSc; MBBS),"""White""",Atheist,Female,1,5,3,10908.85,2,Individual,Prosocial,12,5,8,8,0,7,Prosocial,1,5
Individualist,1,3070.295,44,1,Choose,28,Postgraduate Degree (e.g. MA; MSc),English/Welsh/Scottish/Northern Irish/British,Atheist,Female,0,2,5,29254.89,2,Competative,Prosocial,9,5,9,9,0,4,Prosocial,1,6
Individualist,2,3772.885,44,1,Choose,28,Postgraduate Degree (e.g. MA; MSc),English/Welsh/Scottish/Northern Irish/British,Atheist,Female,0,2,5,29254.89,2,Competative,Individual,8,2,9,5,6,4,Individual,2,6
Individualist,3,2073.105,44,1,Choose,28,Postgraduate Degree (e.g. MA; MSc),English/Welsh/Scottish/Northern Irish/British,Atheist,Female,0,2,5,29254.89,2,Competative,Prosocial,8,5,8,8,0,3,Prosocial,1,6
Individualist,4,2913.05,44,1,Choose,28,Postgraduate Degree (e.g. MA; MSc),English/Welsh/Scottish/Northern Irish/British,Atheist,Female,0,2,5,29254.89,1,Individual,Competitive,11,6,9,2,7,5,Individual,2,6
Individualist,5,1900.425,44,1,Choose,28,Postgraduate Degree (e.g. MA; MSc),English/Welsh/Scottish/Northern Irish/British,Atheist,Female,0,2,5,29254.89,1,Individual,Prosocial,12,5,8,8,0,7,Individual,2,6
Individualist,6,2297.09,44,1,Choose,28,Postgraduate Degree (e.g. MA; MSc),English/Welsh/Scottish/Northern Irish/British,Atheist,Female,0,2,5,29254.89,2,Individual,Prosocial,12,5,10,10,0,7,Prosocial,1,6
Individualist,7,1085.16,44,1,Choose,28,Postgraduate Degree (e.g. MA; MSc),English/Welsh/Scottish/Northern Irish/British,Atheist,Female,0,2,5,29254.89,1,Prosocial,Competative,8,8,8,2,0,6,Prosocial,1,6
Individualist,8,1271.69,44,1,Choose,28,Postgraduate Degree (e.g. MA; MSc),English/Welsh/Scottish/Northern Irish/British,Atheist,Female,0,2,5,29254.89,2,Competative,Prosocial,10,5,10,10,0,5,Prosocial,1,6
Individualist,9,1849.345,44,1,Choose,28,Postgraduate Degree (e.g. MA; MSc),English/Welsh/Scottish/Northern Irish/British,Atheist,Female,0,2,5,29254.89,2,Competative,Individual,6,2,8,5,4,3,Individual,2,6
Individualist,10,2295.33,44,1,Choose,28,Postgraduate Degree (e.g. MA; MSc),English/Welsh/Scottish/Northern Irish/British,Atheist,Female,0,2,5,29254.89,1,Individual,Competative,12,6,10,2,8,6,Individual,2,6
Individualist,11,1757.88,44,1,Choose,28,Postgraduate Degree (e.g. MA; MSc),English/Welsh/Scottish/Northern Irish/British,Atheist,Female,0,2,5,29254.89,2,Competative,Individual,7,2,8,5,5,3,Individual,2,6
Individualist,12,1073.4,44,1,Choose,28,Postgraduate Degree (e.g. MA; MSc),English/Welsh/Scottish/Northern Irish/British,Atheist,Female,0,2,5,29254.89,1,Prosocial,Competative,7,7,7,2,0,5,Prosocial,1,6
Individualist,13,1675.76,44,1,Choose,28,Postgraduate Degree (e.g. MA; MSc),English/Welsh/Scottish/Northern Irish/British,Atheist,Female,0,2,5,29254.89,1,Individual,Competative,10,6,8,2,6,4,Individual,2,6
Individualist,14,1432.215,44,1,Choose,28,Postgraduate Degree (e.g. MA; MSc),English/Welsh/Scottish/Northern Irish/British,Atheist,Female,0,2,5,29254.89,2,Prosocial,Individual,8,8,10,5,0,5,Individual,2,6
Individualist,15,1525.555,44,1,Choose,28,Postgraduate Degree (e.g. MA; MSc),English/Welsh/Scottish/Northern Irish/British,Atheist,Female,0,2,5,29254.89,2,Prosocial,Individual,6,6,10,5,0,5,Individual,2,6
Individualist,16,3429.215,44,1,Choose,28,Postgraduate Degree (e.g. MA; MSc),English/Welsh/Scottish/Northern Irish/British,Atheist,Female,0,2,5,29254.89,1,Individual,Prosocial,12,5,9,9,0,7,Individual,2,6
Individualist,17,1747.055,44,1,Choose,28,Postgraduate Degree (e.g. MA; MSc),English/Welsh/Scottish/Northern Irish/British,Atheist,Female,0,2,5,29254.89,2,Prosocial,Individual,7,7,10,5,0,5,Individual,2,6
Individualist,18,1250.235,44,1,Choose,28,Postgraduate Degree (e.g. MA; MSc),English/Welsh/Scottish/Northern Irish/British,Atheist,Female,0,2,5,29254.89,1,Prosocial,Competative,6,6,6,2,0,4,Prosocial,1,6
Prosocial,1,8567.435,100,1,Choose,51,Secondary School (GCSE or equivalent),English/Welsh/Scottish/Northern Irish/British,Christian,Female,1,2,6,37655.58,1,Prosocial,Competative,8,8,8,2,0,6,Prosocial,1,7
Prosocial,2,7038.015,100,1,Choose,51,Secondary School (GCSE or equivalent),English/Welsh/Scottish/Northern Irish/British,Christian,Female,1,2,6,37655.58,1,Competative,Individual,7,2,8,5,5,3,Competative,3,7
Prosocial,3,4854.135,100,1,Choose,51,Secondary School (GCSE or equivalent),English/Welsh/Scottish/Northern Irish/British,Christian,Female,1,2,6,37655.58,2,Competative,Individual,8,2,9,5,6,4,Individual,2,7
Prosocial,4,5022.745,100,1,Choose,51,Secondary School (GCSE or equivalent),English/Welsh/Scottish/Northern Irish/British,Christian,Female,1,2,6,37655.58,1,Individual,Prosocial,12,5,9,9,0,7,Individual,2,7
Prosocial,5,3601.845,100,1,Choose,51,Secondary School (GCSE or equivalent),English/Welsh/Scottish/Northern Irish/British,Christian,Female,1,2,6,37655.58,1,Prosocial,Competative,6,6,6,2,0,4,Prosocial,1,7
Prosocial,6,3909.25,100,1,Choose,51,Secondary School (GCSE or equivalent),English/Welsh/Scottish/Northern Irish/British,Christian,Female,1,2,6,37655.58,1,Individual,Competative,12,6,10,2,8,6,Individual,2,7
Prosocial,7,4467.085,100,1,Choose,51,Secondary School (GCSE or equivalent),English/Welsh/Scottish/Northern Irish/British,Christian,Female,1,2,6,37655.58,2,Prosocial,Individual,8,8,10,5,0,5,Individual,2,7
Prosocial,8,3287.495,100,1,Choose,51,Secondary School (GCSE or equivalent),English/Welsh/Scottish/Northern Irish/British,Christian,Female,1,2,6,37655.58,2,Competative,Individual,6,2,8,5,4,3,Individual,2,7
Prosocial,9,3392.58,100,1,Choose,51,Secondary School (GCSE or equivalent),English/Welsh/Scottish/Northern Irish/British,Christian,Female,1,2,6,37655.58,1,Individual,Prosocial,12,5,8,8,0,7,Individual,2,7
Prosocial,10,4193.205,100,1,Choose,51,Secondary School (GCSE or equivalent),English/Welsh/Scottish/Northern Irish/British,Christian,Female,1,2,6,37655.58,1,Individual,Competitive,11,6,9,2,7,5,Individual,2,7
Prosocial,11,4489.86,100,1,Choose,51,Secondary School (GCSE or equivalent),English/Welsh/Scottish/Northern Irish/British,Christian,Female,1,2,6,37655.58,1,Individual,Competative,10,6,8,2,6,4,Individual,2,7
Prosocial,12,3256.125,100,1,Choose,51,Secondary School (GCSE or equivalent),English/Welsh/Scottish/Northern Irish/British,Christian,Female,1,2,6,37655.58,2,Prosocial,Individual,7,7,10,5,0,5,Individual,2,7
Prosocial,13,2298.165,100,1,Choose,51,Secondary School (GCSE or equivalent),English/Welsh/Scottish/Northern Irish/British,Christian,Female,1,2,6,37655.58,1,Competative,Prosocial,8,5,8,8,0,3,Competative,3,7
Prosocial,14,2695.58,100,1,Choose,51,Secondary School (GCSE or equivalent),English/Welsh/Scottish/Northern Irish/British,Christian,Female,1,2,6,37655.58,1,Competative,Prosocial,10,5,10,10,0,5,Competative,3,7
Prosocial,15,3504.7,100,1,Choose,51,Secondary School (GCSE or equivalent),English/Welsh/Scottish/Northern Irish/British,Christian,Female,1,2,6,37655.58,2,Prosocial,Individual,6,6,10,5,0,5,Individual,2,7
Prosocial,16,4720.995,100,1,Choose,51,Secondary School (GCSE or equivalent),English/Welsh/Scottish/Northern Irish/British,Christian,Female,1,2,6,37655.58,2,Competative,Prosocial,9,5,9,9,0,4,Prosocial,1,7
Prosocial,17,2835.17,100,1,Choose,51,Secondary School (GCSE or equivalent),English/Welsh/Scottish/Northern Irish/British,Christian,Female,1,2,6,37655.58,2,Prosocial,Competative,7,7,7,2,0,5,Competative,3,7
Prosocial,18,2416.75,100,1,Choose,51,Secondary School (GCSE or equivalent),English/Welsh/Scottish/Northern Irish/British,Christian,Female,1,2,6,37655.58,1,Individual,Prosocial,12,5,10,10,0,7,Individual,2,7
Competative,1,2901.7,50,1,Choose,27,College/Sixth Form (A level or equivalent),"""White""",Atheist,Female,0,1,3,13853.58,1,Prosocial,Individual,8,8,10,5,0,5,Prosocial,1,8
Competative,2,1388.485,50,1,Choose,27,College/Sixth Form (A level or equivalent),"""White""",Atheist,Female,0,1,3,13853.58,2,Competative,Prosocial,8,5,8,8,0,3,Prosocial,1,8
Competative,3,1232.115,50,1,Choose,27,College/Sixth Form (A level or equivalent),"""White""",Atheist,Female,0,1,3,13853.58,2,Competative,Prosocial,10,5,10,10,0,5,Prosocial,1,8
Competative,4,4481.61,50,1,Choose,27,College/Sixth Form (A level or equivalent),"""White""",Atheist,Female,0,1,3,13853.58,1,Individual,Competative,12,6,10,2,8,6,Individual,2,8
Competative,5,3625.21,50,1,Choose,27,College/Sixth Form (A level or equivalent),"""White""",Atheist,Female,0,1,3,13853.58,1,Individual,Competitive,11,6,9,2,7,5,Individual,2,8
Competative,6,2510,50,1,Choose,27,College/Sixth Form (A level or equivalent),"""White""",Atheist,Female,0,1,3,13853.58,2,Individual,Prosocial,12,5,9,9,0,7,Prosocial,1,8
Competative,7,1551.195,50,1,Choose,27,College/Sixth Form (A level or equivalent),"""White""",Atheist,Female,0,1,3,13853.58,1,Prosocial,Competative,6,6,6,2,0,4,Prosocial,1,8
Competative,8,1350.76,50,1,Choose,27,College/Sixth Form (A level or equivalent),"""White""",Atheist,Female,0,1,3,13853.58,1,Prosocial,Competative,8,8,8,2,0,6,Prosocial,1,8
Competative,9,1462.495,50,1,Choose,27,College/Sixth Form (A level or equivalent),"""White""",Atheist,Female,0,1,3,13853.58,2,Individual,Prosocial,12,5,10,10,0,7,Prosocial,1,8
Competative,10,1154.365,50,1,Choose,27,College/Sixth Form (A level or equivalent),"""White""",Atheist,Female,0,1,3,13853.58,1,Prosocial,Competative,7,7,7,2,0,5,Prosocial,1,8
Competative,11,2461.36,50,1,Choose,27,College/Sixth Form (A level or equivalent),"""White""",Atheist,Female,0,1,3,13853.58,2,Competative,Individual,6,2,8,5,4,3,Individual,2,8
Competative,12,2177.375,50,1,Choose,27,College/Sixth Form (A level or equivalent),"""White""",Atheist,Female,0,1,3,13853.58,2,Competative,Individual,7,2,8,5,5,3,Individual,2,8
Competative,13,1579.81,50,1,Choose,27,College/Sixth Form (A level or equivalent),"""White""",Atheist,Female,0,1,3,13853.58,1,Individual,Competative,10,6,8,2,6,4,Individual,2,8
Competative,14,1239.76,50,1,Choose,27,College/Sixth Form (A level or equivalent),"""White""",Atheist,Female,0,1,3,13853.58,1,Prosocial,Individual,7,7,10,5,0,5,Prosocial,1,8
Competative,15,1504.335,50,1,Choose,27,College/Sixth Form (A level or equivalent),"""White""",Atheist,Female,0,1,3,13853.58,2,Competative,Prosocial,9,5,9,9,0,4,Prosocial,1,8
Competative,16,2754.575,50,1,Choose,27,College/Sixth Form (A level or equivalent),"""White""",Atheist,Female,0,1,3,13853.58,2,Competative,Individual,8,2,9,5,6,4,Individual,2,8
Competative,17,1283.915,50,1,Choose,27,College/Sixth Form (A level or equivalent),"""White""",Atheist,Female,0,1,3,13853.58,1,Prosocial,Individual,6,6,10,5,0,5,Prosocial,1,8
Competative,18,1784.095,50,1,Choose,27,College/Sixth Form (A level or equivalent),"""White""",Atheist,Female,0,1,3,13853.58,2,Individual,Prosocial,12,5,8,8,0,7,Prosocial,1,8
Prosocial,1,5591.4,14,0,Choose,30,Undergraduate Degree (e.g. BSc; MBBS),English/Welsh/Scottish/Northern Irish/British,Atheist,Male,5,15,1,13285.94,1,Competative,Individual,7,2,8,5,5,3,Competative,3,9
Prosocial,2,1971.57,14,0,Choose,30,Undergraduate Degree (e.g. BSc; MBBS),English/Welsh/Scottish/Northern Irish/British,Atheist,Male,5,15,1,13285.94,2,Prosocial,Competative,7,7,7,2,0,5,Competative,3,9
Prosocial,3,3048.38,14,0,Choose,30,Undergraduate Degree (e.g. BSc; MBBS),English/Welsh/Scottish/Northern Irish/British,Atheist,Male,5,15,1,13285.94,2,Individual,Competative,10,6,8,2,6,4,Competative,3,9
Prosocial,4,5821.245,14,0,Choose,30,Undergraduate Degree (e.g. BSc; MBBS),English/Welsh/Scottish/Northern Irish/British,Atheist,Male,5,15,1,13285.94,2,Prosocial,Competative,6,6,6,2,0,4,Competative,3,9
Prosocial,5,4790.735,14,0,Choose,30,Undergraduate Degree (e.g. BSc; MBBS),English/Welsh/Scottish/Northern Irish/British,Atheist,Male,5,15,1,13285.94,1,Individual,Prosocial,12,5,8,8,0,7,Individual,2,9
Prosocial,6,2390.035,14,0,Choose,30,Undergraduate Degree (e.g. BSc; MBBS),English/Welsh/Scottish/Northern Irish/British,Atheist,Male,5,15,1,13285.94,1,Competative,Individual,8,2,9,5,6,4,Competative,3,9
Prosocial,7,2752.155,14,0,Choose,30,Undergraduate Degree (e.g. BSc; MBBS),English/Welsh/Scottish/Northern Irish/British,Atheist,Male,5,15,1,13285.94,1,Individual,Prosocial,12,5,10,10,0,7,Individual,2,9
Prosocial,8,2061.58,14,0,Choose,30,Undergraduate Degree (e.g. BSc; MBBS),English/Welsh/Scottish/Northern Irish/British,Atheist,Male,5,15,1,13285.94,2,Prosocial,Individual,7,7,10,5,0,5,Individual,2,9
Prosocial,9,4448.37,14,0,Choose,30,Undergraduate Degree (e.g. BSc; MBBS),English/Welsh/Scottish/Northern Irish/British,Atheist,Male,5,15,1,13285.94,2,Individual,Competitive,11,6,9,2,7,5,Competitive,3,9
Prosocial,10,1887.05,14,0,Choose,30,Undergraduate Degree (e.g. BSc; MBBS),English/Welsh/Scottish/Northern Irish/British,Atheist,Male,5,15,1,13285.94,2,Prosocial,Individual,8,8,10,5,0,5,Individual,2,9
Prosocial,11,1364.895,14,0,Choose,30,Undergraduate Degree (e.g. BSc; MBBS),English/Welsh/Scottish/Northern Irish/British,Atheist,Male,5,15,1,13285.94,2,Prosocial,Individual,6,6,10,5,0,5,Individual,2,9
Prosocial,12,1522.02,14,0,Choose,30,Undergraduate Degree (e.g. BSc; MBBS),English/Welsh/Scottish/Northern Irish/British,Atheist,Male,5,15,1,13285.94,1,Competative,Prosocial,8,5,8,8,0,3,Competative,3,9
Prosocial,13,2111.84,14,0,Choose,30,Undergraduate Degree (e.g. BSc; MBBS),English/Welsh/Scottish/Northern Irish/British,Atheist,Male,5,15,1,13285.94,1,Competative,Individual,6,2,8,5,4,3,Competative,3,9
Prosocial,14,3710.375,14,0,Choose,30,Undergraduate Degree (e.g. BSc; MBBS),English/Welsh/Scottish/Northern Irish/British,Atheist,Male,5,15,1,13285.94,1,Individual,Competative,12,6,10,2,8,6,Individual,2,9
Prosocial,15,2553.355,14,0,Choose,30,Undergraduate Degree (e.g. BSc; MBBS),English/Welsh/Scottish/Northern Irish/British,Atheist,Male,5,15,1,13285.94,1,Competative,Prosocial,10,5,10,10,0,5,Competative,3,9
Prosocial,16,1513.505,14,0,Choose,30,Undergraduate Degree (e.g. BSc; MBBS),English/Welsh/Scottish/Northern Irish/British,Atheist,Male,5,15,1,13285.94,1,Competative,Prosocial,9,5,9,9,0,4,Competative,3,9
Prosocial,17,1166.7,14,0,Choose,30,Undergraduate Degree (e.g. BSc; MBBS),English/Welsh/Scottish/Northern Irish/British,Atheist,Male,5,15,1,13285.94,2,Prosocial,Competative,8,8,8,2,0,6,Competative,3,9
Prosocial,18,1114.45,14,0,Choose,30,Undergraduate Degree (e.g. BSc; MBBS),English/Welsh/Scottish/Northern Irish/British,Atheist,Male,5,15,1,13285.94,1,Individual,Prosocial,12,5,9,9,0,7,Individual,2,9
Prosocial,1,3145,79,1,Choose,48,Undergraduate Degree (e.g. BSc; MBBS),"""White""",Agnostic,Female,4,3,4,30930.6,1,Individual,Competative,12,6,10,2,8,6,Individual,2,10
Prosocial,2,1552,79,1,Choose,48,Undergraduate Degree (e.g. BSc; MBBS),"""White""",Agnostic,Female,4,3,4,30930.6,1,Prosocial,Competative,7,7,7,2,0,5,Prosocial,1,10
Prosocial,3,2157,79,1,Choose,48,Undergraduate Degree (e.g. BSc; MBBS),"""White""",Agnostic,Female,4,3,4,30930.6,2,Individual,Prosocial,12,5,10,10,0,7,Prosocial,1,10
Prosocial,4,2141,79,1,Choose,48,Undergraduate Degree (e.g. BSc; MBBS),"""White""",Agnostic,Female,4,3,4,30930.6,2,Individual,Prosocial,12,5,9,9,0,7,Prosocial,1,10
Prosocial,5,1154,79,1,Choose,48,Undergraduate Degree (e.g. BSc; MBBS),"""White""",Agnostic,Female,4,3,4,30930.6,2,Competative,Prosocial,9,5,9,9,0,4,Prosocial,1,10
Prosocial,6,1948,79,1,Choose,48,Undergraduate Degree (e.g. BSc; MBBS),"""White""",Agnostic,Female,4,3,4,30930.6,2,Competative,Individual,6,2,8,5,4,3,Individual,2,10
Prosocial,7,1429,79,1,Choose,48,Undergraduate Degree (e.g. BSc; MBBS),"""White""",Agnostic,Female,4,3,4,30930.6,2,Competative,Prosocial,8,5,8,8,0,3,Prosocial,1,10
Prosocial,8,2370,79,1,Choose,48,Undergraduate Degree (e.g. BSc; MBBS),"""White""",Agnostic,Female,4,3,4,30930.6,1,Prosocial,Individual,7,7,10,5,0,5,Prosocial,1,10
Prosocial,9,1894,79,1,Choose,48,Undergraduate Degree (e.g. BSc; MBBS),"""White""",Agnostic,Female,4,3,4,30930.6,1,Individual,Competitive,11,6,9,2,7,5,Individual,2,10
Prosocial,10,2118,79,1,Choose,48,Undergraduate Degree (e.g. BSc; MBBS),"""White""",Agnostic,Female,4,3,4,30930.6,2,Competative,Individual,7,2,8,5,5,3,Individual,2,10
Prosocial,11,1639,79,1,Choose,48,Undergraduate Degree (e.g. BSc; MBBS),"""White""",Agnostic,Female,4,3,4,30930.6,1,Prosocial,Individual,8,8,10,5,0,5,Prosocial,1,10
Prosocial,12,1742,79,1,Choose,48,Undergraduate Degree (e.g. BSc; MBBS),"""White""",Agnostic,Female,4,3,4,30930.6,2,Individual,Prosocial,12,5,8,8,0,7,Prosocial,1,10
Prosocial,13,2829,79,1,Choose,48,Undergraduate Degree (e.g. BSc; MBBS),"""White""",Agnostic,Female,4,3,4,30930.6,1,Prosocial,Competative,8,8,8,2,0,6,Prosocial,1,10
Prosocial,14,1294,79,1,Choose,48,Undergraduate Degree (e.g. BSc; MBBS),"""White""",Agnostic,Female,4,3,4,30930.6,2,Competative,Prosocial,10,5,10,10,0,5,Prosocial,1,10
Prosocial,15,1907,79,1,Choose,48,Undergraduate Degree (e.g. BSc; MBBS),"""White""",Agnostic,Female,4,3,4,30930.6,1,Prosocial,Individual,6,6,10,5,0,5,Prosocial,1,10
Prosocial,16,997,79,1,Choose,48,Undergraduate Degree (e.g. BSc; MBBS),"""White""",Agnostic,Female,4,3,4,30930.6,1,Prosocial,Competative,6,6,6,2,0,4,Prosocial,1,10
Prosocial,17,2068,79,1,Choose,48,Undergraduate Degree (e.g. BSc; MBBS),"""White""",Agnostic,Female,4,3,4,30930.6,1,Individual,Competative,10,6,8,2,6,4,Individual,2,10
Prosocial,18,2304,79,1,Choose,48,Undergraduate Degree (e.g. BSc; MBBS),"""White""",Agnostic,Female,4,3,4,30930.6,2,Competative,Individual,8,2,9,5,6,4,Individual,2,10
Competative,1,5152.785,43,1,Choose,39,Doctoral Degree (e.g. PhD; DClinPsy),English/Welsh/Scottish/Northern Irish/British,Other (please specify),Female,0,3,8,118586.79,2,Competative,Prosocial,10,5,10,10,0,5,Prosocial,1,11
Competative,2,3005.6,43,1,Choose,39,Doctoral Degree (e.g. PhD; DClinPsy),English/Welsh/Scottish/Northern Irish/British,Other (please specify),Female,0,3,8,118586.79,1,Prosocial,Competative,7,7,7,2,0,5,Prosocial,1,11
Competative,3,3838.215,43,1,Choose,39,Doctoral Degree (e.g. PhD; DClinPsy),English/Welsh/Scottish/Northern Irish/British,Other (please specify),Female,0,3,8,118586.79,1,Prosocial,Individual,7,7,10,5,0,5,Prosocial,1,11
Competative,4,2750.23,43,1,Choose,39,Doctoral Degree (e.g. PhD; DClinPsy),English/Welsh/Scottish/Northern Irish/British,Other (please specify),Female,0,3,8,118586.79,2,Individual,Prosocial,12,5,8,8,0,7,Prosocial,1,11
Competative,5,6372.08,43,1,Choose,39,Doctoral Degree (e.g. PhD; DClinPsy),English/Welsh/Scottish/Northern Irish/British,Other (please specify),Female,0,3,8,118586.79,2,Competative,Individual,8,2,9,5,6,4,Individual,2,11
Competative,6,3130.975,43,1,Choose,39,Doctoral Degree (e.g. PhD; DClinPsy),English/Welsh/Scottish/Northern Irish/British,Other (please specify),Female,0,3,8,118586.79,1,Prosocial,Individual,6,6,10,5,0,5,Prosocial,1,11
Competative,7,1060.995,43,1,Choose,39,Doctoral Degree (e.g. PhD; DClinPsy),English/Welsh/Scottish/Northern Irish/British,Other (please specify),Female,0,3,8,118586.79,1,Prosocial,Competative,8,8,8,2,0,6,Prosocial,1,11
Competative,8,1823.075,43,1,Choose,39,Doctoral Degree (e.g. PhD; DClinPsy),English/Welsh/Scottish/Northern Irish/British,Other (please specify),Female,0,3,8,118586.79,2,Competative,Prosocial,8,5,8,8,0,3,Prosocial,1,11
Competative,9,8954.415,43,1,Choose,39,Doctoral Degree (e.g. PhD; DClinPsy),English/Welsh/Scottish/Northern Irish/British,Other (please specify),Female,0,3,8,118586.79,2,Competative,Individual,6,2,8,5,4,3,Individual,2,11
Competative,10,3736.11,43,1,Choose,39,Doctoral Degree (e.g. PhD; DClinPsy),English/Welsh/Scottish/Northern Irish/British,Other (please specify),Female,0,3,8,118586.79,2,Competative,Prosocial,9,5,9,9,0,4,Prosocial,1,11
Competative,11,1246.51,43,1,Choose,39,Doctoral Degree (e.g. PhD; DClinPsy),English/Welsh/Scottish/Northern Irish/British,Other (please specify),Female,0,3,8,118586.79,1,Prosocial,Competative,6,6,6,2,0,4,Prosocial,1,11
Competative,12,1121.89,43,1,Choose,39,Doctoral Degree (e.g. PhD; DClinPsy),English/Welsh/Scottish/Northern Irish/British,Other (please specify),Female,0,3,8,118586.79,1,Prosocial,Individual,8,8,10,5,0,5,Prosocial,1,11
Competative,13,2597.48,43,1,Choose,39,Doctoral Degree (e.g. PhD; DClinPsy),English/Welsh/Scottish/Northern Irish/British,Other (please specify),Female,0,3,8,118586.79,2,Individual,Prosocial,12,5,10,10,0,7,Prosocial,1,11
Competative,14,3309.615,43,1,Choose,39,Doctoral Degree (e.g. PhD; DClinPsy),English/Welsh/Scottish/Northern Irish/British,Other (please specify),Female,0,3,8,118586.79,2,Competative,Individual,7,2,8,5,5,3,Individual,2,11
Competative,15,4961.985,43,1,Choose,39,Doctoral Degree (e.g. PhD; DClinPsy),English/Welsh/Scottish/Northern Irish/British,Other (please specify),Female,0,3,8,118586.79,1,Individual,Competative,12,6,10,2,8,6,Individual,2,11
Competative,16,3246.395,43,1,Choose,39,Doctoral Degree (e.g. PhD; DClinPsy),English/Welsh/Scottish/Northern Irish/British,Other (please specify),Female,0,3,8,118586.79,2,Individual,Prosocial,12,5,9,9,0,7,Prosocial,1,11
Competative,17,3930.785,43,1,Choose,39,Doctoral Degree (e.g. PhD; DClinPsy),English/Welsh/Scottish/Northern Irish/British,Other (please specify),Female,0,3,8,118586.79,1,Individual,Competative,10,6,8,2,6,4,Individual,2,11
Competative,18,2883.625,43,1,Choose,39,Doctoral Degree (e.g. PhD; DClinPsy),English/Welsh/Scottish/Northern Irish/British,Other (please specify),Female,0,3,8,118586.79,1,Individual,Competitive,11,6,9,2,7,5,Individual,2,11
Competative,1,5832,29,1,Choose,46,Undergraduate Degree (e.g. BSc; MBBS),"""White""",Other (please specify),Female,1,3,6,10721.4,1,Individual,Competative,12,6,10,2,8,6,Individual,2,12
Competative,2,3374,29,1,Choose,46,Undergraduate Degree (e.g. BSc; MBBS),"""White""",Other (please specify),Female,1,3,6,10721.4,1,Competative,Individual,8,2,9,5,6,4,Competative,3,12
Competative,3,3286,29,1,Choose,46,Undergraduate Degree (e.g. BSc; MBBS),"""White""",Other (please specify),Female,1,3,6,10721.4,1,Individual,Competitive,11,6,9,2,7,5,Individual,2,12
Competative,4,1498,29,1,Choose,46,Undergraduate Degree (e.g. BSc; MBBS),"""White""",Other (please specify),Female,1,3,6,10721.4,2,Competative,Prosocial,9,5,9,9,0,4,Prosocial,1,12
Competative,5,2754,29,1,Choose,46,Undergraduate Degree (e.g. BSc; MBBS),"""White""",Other (please specify),Female,1,3,6,10721.4,2,Prosocial,Individual,6,6,10,5,0,5,Individual,2,12
Competative,6,1680,29,1,Choose,46,Undergraduate Degree (e.g. BSc; MBBS),"""White""",Other (please specify),Female,1,3,6,10721.4,2,Competative,Individual,6,2,8,5,4,3,Individual,2,12
Competative,7,1059,29,1,Choose,46,Undergraduate Degree (e.g. BSc; MBBS),"""White""",Other (please specify),Female,1,3,6,10721.4,1,Prosocial,Competative,6,6,6,2,0,4,Prosocial,1,12
Competative,8,1725,29,1,Choose,46,Undergraduate Degree (e.g. BSc; MBBS),"""White""",Other (please specify),Female,1,3,6,10721.4,2,Competative,Individual,7,2,8,5,5,3,Individual,2,12
Competative,9,2406,29,1,Choose,46,Undergraduate Degree (e.g. BSc; MBBS),"""White""",Other (please specify),Female,1,3,6,10721.4,2,Individual,Prosocial,12,5,8,8,0,7,Prosocial,1,12
Competative,10,1258,29,1,Choose,46,Undergraduate Degree (e.g. BSc; MBBS),"""White""",Other (please specify),Female,1,3,6,10721.4,1,Prosocial,Competative,7,7,7,2,0,5,Prosocial,1,12
Competative,11,1924,29,1,Choose,46,Undergraduate Degree (e.g. BSc; MBBS),"""White""",Other (please specify),Female,1,3,6,10721.4,2,Individual,Prosocial,12,5,9,9,0,7,Prosocial,1,12
Competative,12,906,29,1,Choose,46,Undergraduate Degree (e.g. BSc; MBBS),"""White""",Other (please specify),Female,1,3,6,10721.4,2,Competative,Prosocial,10,5,10,10,0,5,Prosocial,1,12
Competative,13,2156,29,1,Choose,46,Undergraduate Degree (e.g. BSc; MBBS),"""White""",Other (please specify),Female,1,3,6,10721.4,1,Individual,Competative,10,6,8,2,6,4,Individual,2,12
Competative,14,933,29,1,Choose,46,Undergraduate Degree (e.g. BSc; MBBS),"""White""",Other (please specify),Female,1,3,6,10721.4,2,Individual,Prosocial,12,5,10,10,0,7,Prosocial,1,12
Competative,15,958,29,1,Choose,46,Undergraduate Degree (e.g. BSc; MBBS),"""White""",Other (please specify),Female,1,3,6,10721.4,2,Competative,Prosocial,8,5,8,8,0,3,Prosocial,1,12
Competative,16,1618,29,1,Choose,46,Undergraduate Degree (e.g. BSc; MBBS),"""White""",Other (please specify),Female,1,3,6,10721.4,1,Prosocial,Individual,7,7,10,5,0,5,Prosocial,1,12
Competative,17,664,29,1,Choose,46,Undergraduate Degree (e.g. BSc; MBBS),"""White""",Other (please specify),Female,1,3,6,10721.4,1,Prosocial,Competative,8,8,8,2,0,6,Prosocial,1,12
Competative,18,1773,29,1,Choose,46,Undergraduate Degree (e.g. BSc; MBBS),"""White""",Other (please specify),Female,1,3,6,10721.4,1,Prosocial,Individual,8,8,10,5,0,5,Prosocial,1,12
Competative,1,10025,92,0,Choose,74,Secondary School (GCSE or equivalent),English/Welsh/Scottish/Northern Irish/British,Buddhist,Male,0,0,4,50568.5,2,Competative,Individual,6,2,8,5,4,3,Individual,2,13
Competative,2,6091,92,0,Choose,74,Secondary School (GCSE or equivalent),English/Welsh/Scottish/Northern Irish/British,Buddhist,Male,0,0,4,50568.5,2,Competative,Individual,7,2,8,5,5,3,Individual,2,13
Competative,3,3792,92,0,Choose,74,Secondary School (GCSE or equivalent),English/Welsh/Scottish/Northern Irish/British,Buddhist,Male,0,0,4,50568.5,2,Competative,Prosocial,8,5,8,8,0,3,Prosocial,1,13
Competative,4,2628,92,0,Choose,74,Secondary School (GCSE or equivalent),English/Welsh/Scottish/Northern Irish/British,Buddhist,Male,0,0,4,50568.5,1,Prosocial,Individual,8,8,10,5,0,5,Prosocial,1,13
Competative,5,1919,92,0,Choose,74,Secondary School (GCSE or equivalent),English/Welsh/Scottish/Northern Irish/British,Buddhist,Male,0,0,4,50568.5,2,Individual,Prosocial,12,5,9,9,0,7,Prosocial,1,13
Competative,6,1651,92,0,Choose,74,Secondary School (GCSE or equivalent),English/Welsh/Scottish/Northern Irish/British,Buddhist,Male,0,0,4,50568.5,1,Prosocial,Competative,8,8,8,2,0,6,Prosocial,1,13
Competative,7,1886,92,0,Choose,74,Secondary School (GCSE or equivalent),English/Welsh/Scottish/Northern Irish/British,Buddhist,Male,0,0,4,50568.5,2,Individual,Prosocial,12,5,8,8,0,7,Prosocial,1,13
Competative,8,1542,92,0,Choose,74,Secondary School (GCSE or equivalent),English/Welsh/Scottish/Northern Irish/British,Buddhist,Male,0,0,4,50568.5,2,Individual,Prosocial,12,5,10,10,0,7,Prosocial,1,13
Competative,9,1775,92,0,Choose,74,Secondary School (GCSE or equivalent),English/Welsh/Scottish/Northern Irish/British,Buddhist,Male,0,0,4,50568.5,2,Competative,Prosocial,10,5,10,10,0,5,Prosocial,1,13
Competative,10,5959,92,0,Choose,74,Secondary School (GCSE or equivalent),English/Welsh/Scottish/Northern Irish/British,Buddhist,Male,0,0,4,50568.5,1,Individual,Competative,10,6,8,2,6,4,Individual,2,13
Competative,11,1703,92,0,Choose,74,Secondary School (GCSE or equivalent),English/Welsh/Scottish/Northern Irish/British,Buddhist,Male,0,0,4,50568.5,1,Prosocial,Competative,6,6,6,2,0,4,Prosocial,1,13
Competative,12,3514,92,0,Choose,74,Secondary School (GCSE or equivalent),English/Welsh/Scottish/Northern Irish/British,Buddhist,Male,0,0,4,50568.5,1,Individual,Competitive,11,6,9,2,7,5,Individual,2,13
Competative,13,2074,92,0,Choose,74,Secondary School (GCSE or equivalent),English/Welsh/Scottish/Northern Irish/British,Buddhist,Male,0,0,4,50568.5,2,Competative,Individual,8,2,9,5,6,4,Individual,2,13
Competative,14,2195,92,0,Choose,74,Secondary School (GCSE or equivalent),English/Welsh/Scottish/Northern Irish/British,Buddhist,Male,0,0,4,50568.5,2,Competative,Prosocial,9,5,9,9,0,4,Prosocial,1,13
Competative,15,1853,92,0,Choose,74,Secondary School (GCSE or equivalent),English/Welsh/Scottish/Northern Irish/British,Buddhist,Male,0,0,4,50568.5,1,Prosocial,Competative,7,7,7,2,0,5,Prosocial,1,13
Competative,16,1378,92,0,Choose,74,Secondary School (GCSE or equivalent),English/Welsh/Scottish/Northern Irish/British,Buddhist,Male,0,0,4,50568.5,1,Prosocial,Individual,6,6,10,5,0,5,Prosocial,1,13
Competative,17,4749,92,0,Choose,74,Secondary School (GCSE or equivalent),English/Welsh/Scottish/Northern Irish/British,Buddhist,Male,0,0,4,50568.5,1,Individual,Competative,12,6,10,2,8,6,Individual,2,13
Competative,18,1184,92,0,Choose,74,Secondary School (GCSE or equivalent),English/Welsh/Scottish/Northern Irish/British,Buddhist,Male,0,0,4,50568.5,1,Prosocial,Individual,7,7,10,5,0,5,Prosocial,1,13
Competative,1,2500.365,3,1,Choose,41,Secondary School (GCSE or equivalent),English/Welsh/Scottish/Northern Irish/British,Christian,Female,1,5,7,31663.73,2,Prosocial,Individual,6,6,10,5,0,5,Individual,2,14
Competative,2,3336.04,3,1,Choose,41,Secondary School (GCSE or equivalent),English/Welsh/Scottish/Northern Irish/British,Christian,Female,1,5,7,31663.73,2,Competative,Individual,6,2,8,5,4,3,Individual,2,14
Competative,3,1534.98,3,1,Choose,41,Secondary School (GCSE or equivalent),English/Welsh/Scottish/Northern Irish/British,Christian,Female,1,5,7,31663.73,2,Prosocial,Individual,8,8,10,5,0,5,Individual,2,14
Competative,4,1682.17,3,1,Choose,41,Secondary School (GCSE or equivalent),English/Welsh/Scottish/Northern Irish/British,Christian,Female,1,5,7,31663.73,2,Competative,Individual,8,2,9,5,6,4,Individual,2,14
Competative,5,3403.19,3,1,Choose,41,Secondary School (GCSE or equivalent),English/Welsh/Scottish/Northern Irish/British,Christian,Female,1,5,7,31663.73,1,Individual,Prosocial,12,5,9,9,0,7,Individual,2,14
Competative,6,1470.565,3,1,Choose,41,Secondary School (GCSE or equivalent),English/Welsh/Scottish/Northern Irish/British,Christian,Female,1,5,7,31663.73,1,Individual,Competative,10,6,8,2,6,4,Individual,2,14
Competative,7,2253.705,3,1,Choose,41,Secondary School (GCSE or equivalent),English/Welsh/Scottish/Northern Irish/British,Christian,Female,1,5,7,31663.73,2,Prosocial,Competative,7,7,7,2,0,5,Competative,3,14
Competative,8,1449.345,3,1,Choose,41,Secondary School (GCSE or equivalent),English/Welsh/Scottish/Northern Irish/British,Christian,Female,1,5,7,31663.73,1,Individual,Prosocial,12,5,8,8,0,7,Individual,2,14
Competative,9,2842.29,3,1,Choose,41,Secondary School (GCSE or equivalent),English/Welsh/Scottish/Northern Irish/British,Christian,Female,1,5,7,31663.73,1,Competative,Prosocial,9,5,9,9,0,4,Competative,3,14
Competative,10,4261.65,3,1,Choose,41,Secondary School (GCSE or equivalent),English/Welsh/Scottish/Northern Irish/British,Christian,Female,1,5,7,31663.73,1,Competative,Individual,7,2,8,5,5,3,Competative,3,14
Competative,11,3254.11,3,1,Choose,41,Secondary School (GCSE or equivalent),English/Welsh/Scottish/Northern Irish/British,Christian,Female,1,5,7,31663.73,2,Individual,Competative,12,6,10,2,8,6,Competative,3,14
Competative,12,1238.205,3,1,Choose,41,Secondary School (GCSE or equivalent),English/Welsh/Scottish/Northern Irish/British,Christian,Female,1,5,7,31663.73,1,Competative,Prosocial,10,5,10,10,0,5,Competative,3,14
Competative,13,2214.82,3,1,Choose,41,Secondary School (GCSE or equivalent),English/Welsh/Scottish/Northern Irish/British,Christian,Female,1,5,7,31663.73,2,Prosocial,Competative,8,8,8,2,0,6,Competative,3,14
Competative,14,2010.265,3,1,Choose,41,Secondary School (GCSE or equivalent),English/Welsh/Scottish/Northern Irish/British,Christian,Female,1,5,7,31663.73,1,Competative,Prosocial,8,5,8,8,0,3,Competative,3,14
Competative,15,1963.725,3,1,Choose,41,Secondary School (GCSE or equivalent),English/Welsh/Scottish/Northern Irish/British,Christian,Female,1,5,7,31663.73,2,Prosocial,Competative,6,6,6,2,0,4,Competative,3,14
Competative,16,2274.07,3,1,Choose,41,Secondary School (GCSE or equivalent),English/Welsh/Scottish/Northern Irish/British,Christian,Female,1,5,7,31663.73,1,Individual,Prosocial,12,5,10,10,0,7,Individual,2,14
Competative,17,4240.9,3,1,Choose,41,Secondary School (GCSE or equivalent),English/Welsh/Scottish/Northern Irish/British,Christian,Female,1,5,7,31663.73,2,Individual,Competitive,11,6,9,2,7,5,Competitive,3,14
Competative,18,3246.81,3,1,Choose,41,Secondary School (GCSE or equivalent),English/Welsh/Scottish/Northern Irish/British,Christian,Female,1,5,7,31663.73,2,Prosocial,Individual,7,7,10,5,0,5,Individual,2,14
Prosocial,1,3473.705,35,1,Choose,60,Doctoral Degree (e.g. PhD; DClinPsy),English/Welsh/Scottish/Northern Irish/British,Christian,Female,0,0,4,28957.12,2,Individual,Prosocial,12,5,10,10,0,7,Prosocial,1,15
Prosocial,2,7087.295,35,1,Choose,60,Doctoral Degree (e.g. PhD; DClinPsy),English/Welsh/Scottish/Northern Irish/British,Christian,Female,0,0,4,28957.12,1,Individual,Competitive,11,6,9,2,7,5,Individual,2,15
Prosocial,3,2836.94,35,1,Choose,60,Doctoral Degree (e.g. PhD; DClinPsy),English/Welsh/Scottish/Northern Irish/British,Christian,Female,0,0,4,28957.12,1,Prosocial,Competative,7,7,7,2,0,5,Prosocial,1,15
Prosocial,4,4157.855,35,1,Choose,60,Doctoral Degree (e.g. PhD; DClinPsy),English/Welsh/Scottish/Northern Irish/British,Christian,Female,0,0,4,28957.12,2,Competative,Individual,6,2,8,5,4,3,Individual,2,15
Prosocial,5,6799.325,35,1,Choose,60,Doctoral Degree (e.g. PhD; DClinPsy),English/Welsh/Scottish/Northern Irish/British,Christian,Female,0,0,4,28957.12,1,Individual,Prosocial,12,5,9,9,0,7,Individual,2,15
Prosocial,6,3458.105,35,1,Choose,60,Doctoral Degree (e.g. PhD; DClinPsy),English/Welsh/Scottish/Northern Irish/British,Christian,Female,0,0,4,28957.12,1,Prosocial,Competative,6,6,6,2,0,4,Prosocial,1,15
Prosocial,7,4346.23,35,1,Choose,60,Doctoral Degree (e.g. PhD; DClinPsy),English/Welsh/Scottish/Northern Irish/British,Christian,Female,0,0,4,28957.12,1,Individual,Prosocial,12,5,8,8,0,7,Individual,2,15
Prosocial,8,3037.19,35,1,Choose,60,Doctoral Degree (e.g. PhD; DClinPsy),English/Welsh/Scottish/Northern Irish/British,Christian,Female,0,0,4,28957.12,2,Competative,Prosocial,10,5,10,10,0,5,Prosocial,1,15
Prosocial,9,5197.34,35,1,Choose,60,Doctoral Degree (e.g. PhD; DClinPsy),English/Welsh/Scottish/Northern Irish/British,Christian,Female,0,0,4,28957.12,1,Prosocial,Individual,7,7,10,5,0,5,Prosocial,1,15
Prosocial,10,1582.72,35,1,Choose,60,Doctoral Degree (e.g. PhD; DClinPsy),English/Welsh/Scottish/Northern Irish/British,Christian,Female,0,0,4,28957.12,1,Prosocial,Competative,8,8,8,2,0,6,Prosocial,1,15
Prosocial,11,4180.965,35,1,Choose,60,Doctoral Degree (e.g. PhD; DClinPsy),English/Welsh/Scottish/Northern Irish/British,Christian,Female,0,0,4,28957.12,1,Individual,Competative,12,6,10,2,8,6,Individual,2,15
Prosocial,12,3609.32,35,1,Choose,60,Doctoral Degree (e.g. PhD; DClinPsy),English/Welsh/Scottish/Northern Irish/British,Christian,Female,0,0,4,28957.12,2,Competative,Prosocial,8,5,8,8,0,3,Prosocial,1,15
Prosocial,13,5649.345,35,1,Choose,60,Doctoral Degree (e.g. PhD; DClinPsy),English/Welsh/Scottish/Northern Irish/British,Christian,Female,0,0,4,28957.12,2,Prosocial,Individual,6,6,10,5,0,5,Individual,2,15
Prosocial,14,3511.775,35,1,Choose,60,Doctoral Degree (e.g. PhD; DClinPsy),English/Welsh/Scottish/Northern Irish/British,Christian,Female,0,0,4,28957.12,2,Competative,Individual,7,2,8,5,5,3,Individual,2,15
Prosocial,15,3201.135,35,1,Choose,60,Doctoral Degree (e.g. PhD; DClinPsy),English/Welsh/Scottish/Northern Irish/British,Christian,Female,0,0,4,28957.12,1,Prosocial,Individual,8,8,10,5,0,5,Prosocial,1,15
Prosocial,16,2529.825,35,1,Choose,60,Doctoral Degree (e.g. PhD; DClinPsy),English/Welsh/Scottish/Northern Irish/British,Christian,Female,0,0,4,28957.12,1,Individual,Competative,10,6,8,2,6,4,Individual,2,15
Prosocial,17,1891.31,35,1,Choose,60,Doctoral Degree (e.g. PhD; DClinPsy),English/Welsh/Scottish/Northern Irish/British,Christian,Female,0,0,4,28957.12,2,Competative,Prosocial,9,5,9,9,0,4,Prosocial,1,15
Prosocial,18,3224.06,35,1,Choose,60,Doctoral Degree (e.g. PhD; DClinPsy),English/Welsh/Scottish/Northern Irish/British,Christian,Female,0,0,4,28957.12,2,Competative,Individual,8,2,9,5,6,4,Individual,2,15
Competative,1,3137.235,74,1,Choose,30,Undergraduate Degree (e.g. BSc; MBBS),English/Welsh/Scottish/Northern Irish/British,Atheist,Female,2,8,3,16868.03,2,Prosocial,Individual,7,7,10,5,0,5,Individual,2,16
Competative,2,2686.735,74,1,Choose,30,Undergraduate Degree (e.g. BSc; MBBS),English/Welsh/Scottish/Northern Irish/British,Atheist,Female,2,8,3,16868.03,2,Competative,Individual,8,2,9,5,6,4,Individual,2,16
Competative,3,1817.12,74,1,Choose,30,Undergraduate Degree (e.g. BSc; MBBS),English/Welsh/Scottish/Northern Irish/British,Atheist,Female,2,8,3,16868.03,1,Individual,Prosocial,12,5,10,10,0,7,Individual,2,16
Competative,4,774.54,74,1,Choose,30,Undergraduate Degree (e.g. BSc; MBBS),English/Welsh/Scottish/Northern Irish/British,Atheist,Female,2,8,3,16868.03,1,Prosocial,Competative,6,6,6,2,0,4,Prosocial,1,16
Competative,5,1081.475,74,1,Choose,30,Undergraduate Degree (e.g. BSc; MBBS),English/Welsh/Scottish/Northern Irish/British,Atheist,Female,2,8,3,16868.03,1,Individual,Competative,12,6,10,2,8,6,Individual,2,16
Competative,6,1561.485,74,1,Choose,30,Undergraduate Degree (e.g. BSc; MBBS),English/Welsh/Scottish/Northern Irish/British,Atheist,Female,2,8,3,16868.03,1,Individual,Competative,10,6,8,2,6,4,Individual,2,16
Competative,7,700.45,74,1,Choose,30,Undergraduate Degree (e.g. BSc; MBBS),English/Welsh/Scottish/Northern Irish/British,Atheist,Female,2,8,3,16868.03,1,Individual,Prosocial,12,5,8,8,0,7,Individual,2,16
Competative,8,964.395,74,1,Choose,30,Undergraduate Degree (e.g. BSc; MBBS),English/Welsh/Scottish/Northern Irish/British,Atheist,Female,2,8,3,16868.03,2,Competative,Individual,6,2,8,5,4,3,Individual,2,16
Competative,9,1439.4,74,1,Choose,30,Undergraduate Degree (e.g. BSc; MBBS),English/Welsh/Scottish/Northern Irish/British,Atheist,Female,2,8,3,16868.03,2,Competative,Prosocial,10,5,10,10,0,5,Prosocial,1,16
Competative,10,1927.47,74,1,Choose,30,Undergraduate Degree (e.g. BSc; MBBS),English/Welsh/Scottish/Northern Irish/British,Atheist,Female,2,8,3,16868.03,1,Prosocial,Competative,7,7,7,2,0,5,Prosocial,1,16
Competative,11,1672.26,74,1,Choose,30,Undergraduate Degree (e.g. BSc; MBBS),English/Welsh/Scottish/Northern Irish/British,Atheist,Female,2,8,3,16868.03,1,Individual,Prosocial,12,5,9,9,0,7,Individual,2,16
Competative,12,1102.94,74,1,Choose,30,Undergraduate Degree (e.g. BSc; MBBS),English/Welsh/Scottish/Northern Irish/British,Atheist,Female,2,8,3,16868.03,2,Competative,Prosocial,9,5,9,9,0,4,Prosocial,1,16
Competative,13,728.935,74,1,Choose,30,Undergraduate Degree (e.g. BSc; MBBS),English/Welsh/Scottish/Northern Irish/British,Atheist,Female,2,8,3,16868.03,2,Prosocial,Individual,6,6,10,5,0,5,Individual,2,16
Competative,14,910.915,74,1,Choose,30,Undergraduate Degree (e.g. BSc; MBBS),English/Welsh/Scottish/Northern Irish/British,Atheist,Female,2,8,3,16868.03,1,Prosocial,Competative,8,8,8,2,0,6,Prosocial,1,16
Competative,15,764.625,74,1,Choose,30,Undergraduate Degree (e.g. BSc; MBBS),English/Welsh/Scottish/Northern Irish/British,Atheist,Female,2,8,3,16868.03,1,Individual,Competitive,11,6,9,2,7,5,Individual,2,16
Competative,16,1034.865,74,1,Choose,30,Undergraduate Degree (e.g. BSc; MBBS),English/Welsh/Scottish/Northern Irish/British,Atheist,Female,2,8,3,16868.03,2,Competative,Prosocial,8,5,8,8,0,3,Prosocial,1,16
Competative,17,846.925,74,1,Choose,30,Undergraduate Degree (e.g. BSc; MBBS),English/Welsh/Scottish/Northern Irish/British,Atheist,Female,2,8,3,16868.03,2,Prosocial,Individual,8,8,10,5,0,5,Individual,2,16
Competative,18,616.32,74,1,Choose,30,Undergraduate Degree (e.g. BSc; MBBS),English/Welsh/Scottish/Northern Irish/British,Atheist,Female,2,8,3,16868.03,2,Competative,Individual,7,2,8,5,5,3,Individual,2,16
Individualist,1,3160,71,0,Choose,71,College/Sixth Form (A level or equivalent),"""White""",Christian,Female,3,7,2,33582,1,Prosocial,Individual,8,8,10,5,0,5,Prosocial,1,17
Individualist,2,10570,71,0,Choose,71,College/Sixth Form (A level or equivalent),"""White""",Christian,Female,3,7,2,33582,2,Individual,Competative,10,6,8,2,6,4,Competative,3,17
Individualist,3,1839,71,0,Choose,71,College/Sixth Form (A level or equivalent),"""White""",Christian,Female,3,7,2,33582,1,Prosocial,Individual,7,7,10,5,0,5,Prosocial,1,17
Individualist,4,4527,71,0,Choose,71,College/Sixth Form (A level or equivalent),"""White""",Christian,Female,3,7,2,33582,1,Individual,Prosocial,12,5,8,8,0,7,Individual,2,17
Individualist,5,6696,71,0,Choose,71,College/Sixth Form (A level or equivalent),"""White""",Christian,Female,3,7,2,33582,1,Competative,Individual,7,2,8,5,5,3,Competative,3,17
Individualist,6,4343,71,0,Choose,71,College/Sixth Form (A level or equivalent),"""White""",Christian,Female,3,7,2,33582,2,Prosocial,Competative,7,7,7,2,0,5,Competative,3,17
Individualist,7,2596,71,0,Choose,71,College/Sixth Form (A level or equivalent),"""White""",Christian,Female,3,7,2,33582,2,Competative,Individual,6,2,8,5,4,3,Individual,2,17
Individualist,8,1809,71,0,Choose,71,College/Sixth Form (A level or equivalent),"""White""",Christian,Female,3,7,2,33582,1,Prosocial,Individual,6,6,10,5,0,5,Prosocial,1,17
Individualist,9,4258,71,0,Choose,71,College/Sixth Form (A level or equivalent),"""White""",Christian,Female,3,7,2,33582,2,Competative,Prosocial,9,5,9,9,0,4,Prosocial,1,17
Individualist,10,3034,71,0,Choose,71,College/Sixth Form (A level or equivalent),"""White""",Christian,Female,3,7,2,33582,1,Individual,Competitive,11,6,9,2,7,5,Individual,2,17
Individualist,11,1650,71,0,Choose,71,College/Sixth Form (A level or equivalent),"""White""",Christian,Female,3,7,2,33582,2,Individual,Prosocial,12,5,10,10,0,7,Prosocial,1,17
Individualist,12,5075,71,0,Choose,71,College/Sixth Form (A level or equivalent),"""White""",Christian,Female,3,7,2,33582,2,Competative,Individual,8,2,9,5,6,4,Individual,2,17
Individualist,13,1958,71,0,Choose,71,College/Sixth Form (A level or equivalent),"""White""",Christian,Female,3,7,2,33582,1,Individual,Competative,12,6,10,2,8,6,Individual,2,17
Individualist,14,1163,71,0,Choose,71,College/Sixth Form (A level or equivalent),"""White""",Christian,Female,3,7,2,33582,1,Prosocial,Competative,8,8,8,2,0,6,Prosocial,1,17
Individualist,15,1580,71,0,Choose,71,College/Sixth Form (A level or equivalent),"""White""",Christian,Female,3,7,2,33582,2,Individual,Prosocial,12,5,9,9,0,7,Prosocial,1,17
Individualist,16,3081,71,0,Choose,71,College/Sixth Form (A level or equivalent),"""White""",Christian,Female,3,7,2,33582,2,Competative,Prosocial,10,5,10,10,0,5,Prosocial,1,17
Individualist,17,3905,71,0,Choose,71,College/Sixth Form (A level or equivalent),"""White""",Christian,Female,3,7,2,33582,1,Prosocial,Competative,6,6,6,2,0,4,Prosocial,1,17
Individualist,18,1459,71,0,Choose,71,College/Sixth Form (A level or equivalent),"""White""",Christian,Female,3,7,2,33582,1,Competative,Prosocial,8,5,8,8,0,3,Competative,3,17
Competative,1,5372,51,1,Choose,55,College/Sixth Form (A level or equivalent),"""White""",Atheist,Male,0,0,4,18638.5,1,Individual,Competative,10,6,8,2,6,4,Individual,2,18
Competative,2,2146,51,1,Choose,55,College/Sixth Form (A level or equivalent),"""White""",Atheist,Male,0,0,4,18638.5,1,Prosocial,Competative,6,6,6,2,0,4,Prosocial,1,18
Competative,3,2576,51,1,Choose,55,College/Sixth Form (A level or equivalent),"""White""",Atheist,Male,0,0,4,18638.5,2,Competative,Individual,7,2,8,5,5,3,Individual,2,18
Competative,4,3951,51,1,Choose,55,College/Sixth Form (A level or equivalent),"""White""",Atheist,Male,0,0,4,18638.5,1,Individual,Competitive,11,6,9,2,7,5,Individual,2,18
Competative,5,1337,51,1,Choose,55,College/Sixth Form (A level or equivalent),"""White""",Atheist,Male,0,0,4,18638.5,1,Prosocial,Competative,7,7,7,2,0,5,Prosocial,1,18
Competative,6,2728,51,1,Choose,55,College/Sixth Form (A level or equivalent),"""White""",Atheist,Male,0,0,4,18638.5,2,Individual,Prosocial,12,5,10,10,0,7,Prosocial,1,18
Competative,7,1473,51,1,Choose,55,College/Sixth Form (A level or equivalent),"""White""",Atheist,Male,0,0,4,18638.5,2,Competative,Prosocial,10,5,10,10,0,5,Prosocial,1,18
Competative,8,1470,51,1,Choose,55,College/Sixth Form (A level or equivalent),"""White""",Atheist,Male,0,0,4,18638.5,2,Individual,Prosocial,12,5,9,9,0,7,Prosocial,1,18
Competative,9,3248,51,1,Choose,55,College/Sixth Form (A level or equivalent),"""White""",Atheist,Male,0,0,4,18638.5,2,Prosocial,Individual,6,6,10,5,0,5,Individual,2,18
Competative,10,1991,51,1,Choose,55,College/Sixth Form (A level or equivalent),"""White""",Atheist,Male,0,0,4,18638.5,1,Prosocial,Individual,8,8,10,5,0,5,Prosocial,1,18
Competative,11,2365,51,1,Choose,55,College/Sixth Form (A level or equivalent),"""White""",Atheist,Male,0,0,4,18638.5,1,Prosocial,Individual,7,7,10,5,0,5,Prosocial,1,18
Competative,12,1810,51,1,Choose,55,College/Sixth Form (A level or equivalent),"""White""",Atheist,Male,0,0,4,18638.5,2,Competative,Individual,8,2,9,5,6,4,Individual,2,18
Competative,13,1351,51,1,Choose,55,College/Sixth Form (A level or equivalent),"""White""",Atheist,Male,0,0,4,18638.5,2,Competative,Prosocial,8,5,8,8,0,3,Prosocial,1,18
Competative,14,2987,51,1,Choose,55,College/Sixth Form (A level or equivalent),"""White""",Atheist,Male,0,0,4,18638.5,1,Prosocial,Competative,8,8,8,2,0,6,Prosocial,1,18
Competative,15,2024,51,1,Choose,55,College/Sixth Form (A level or equivalent),"""White""",Atheist,Male,0,0,4,18638.5,2,Competative,Individual,6,2,8,5,4,3,Individual,2,18
Competative,16,2305,51,1,Choose,55,College/Sixth Form (A level or equivalent),"""White""",Atheist,Male,0,0,4,18638.5,2,Individual,Prosocial,12,5,8,8,0,7,Prosocial,1,18
Competative,17,1213,51,1,Choose,55,College/Sixth Form (A level or equivalent),"""White""",Atheist,Male,0,0,4,18638.5,2,Competative,Prosocial,9,5,9,9,0,4,Prosocial,1,18
Competative,18,2355,51,1,Choose,55,College/Sixth Form (A level or equivalent),"""White""",Atheist,Male,0,0,4,18638.5,1,Individual,Competative,12,6,10,2,8,6,Individual,2,18
Competative,1,12569.165,100,0,Choose,37,College/Sixth Form (A level or equivalent),English/Welsh/Scottish/Northern Irish/British,Christian,Male,0,2,4,28501.31,1,Individual,Competative,10,6,8,2,6,4,Individual,2,19
Competative,2,3915.54,100,0,Choose,37,College/Sixth Form (A level or equivalent),English/Welsh/Scottish/Northern Irish/British,Christian,Male,0,2,4,28501.31,2,Competative,Prosocial,9,5,9,9,0,4,Prosocial,1,19
Competative,3,2089.305,100,0,Choose,37,College/Sixth Form (A level or equivalent),English/Welsh/Scottish/Northern Irish/British,Christian,Male,0,2,4,28501.31,1,Prosocial,Competative,7,7,7,2,0,5,Prosocial,1,19
Competative,4,2262.075,100,0,Choose,37,College/Sixth Form (A level or equivalent),English/Welsh/Scottish/Northern Irish/British,Christian,Male,0,2,4,28501.31,1,Prosocial,Individual,6,6,10,5,0,5,Prosocial,1,19
Competative,5,2503.375,100,0,Choose,37,College/Sixth Form (A level or equivalent),English/Welsh/Scottish/Northern Irish/British,Christian,Male,0,2,4,28501.31,2,Competative,Individual,7,2,8,5,5,3,Individual,2,19
Competative,6,1608.825,100,0,Choose,37,College/Sixth Form (A level or equivalent),English/Welsh/Scottish/Northern Irish/British,Christian,Male,0,2,4,28501.31,2,Competative,Prosocial,8,5,8,8,0,3,Prosocial,1,19
Competative,7,2549.48,100,0,Choose,37,College/Sixth Form (A level or equivalent),English/Welsh/Scottish/Northern Irish/British,Christian,Male,0,2,4,28501.31,1,Prosocial,Individual,7,7,10,5,0,5,Prosocial,1,19
Competative,8,1318.015,100,0,Choose,37,College/Sixth Form (A level or equivalent),English/Welsh/Scottish/Northern Irish/British,Christian,Male,0,2,4,28501.31,1,Prosocial,Competative,6,6,6,2,0,4,Prosocial,1,19
Competative,9,1774.845,100,0,Choose,37,College/Sixth Form (A level or equivalent),English/Welsh/Scottish/Northern Irish/British,Christian,Male,0,2,4,28501.31,2,Individual,Prosocial,12,5,10,10,0,7,Prosocial,1,19
Competative,10,1758.54,100,0,Choose,37,College/Sixth Form (A level or equivalent),English/Welsh/Scottish/Northern Irish/British,Christian,Male,0,2,4,28501.31,2,Individual,Prosocial,12,5,8,8,0,7,Prosocial,1,19
Competative,11,1889.675,100,0,Choose,37,College/Sixth Form (A level or equivalent),English/Welsh/Scottish/Northern Irish/British,Christian,Male,0,2,4,28501.31,2,Competative,Individual,8,2,9,5,6,4,Individual,2,19
Competative,12,2698.705,100,0,Choose,37,College/Sixth Form (A level or equivalent),English/Welsh/Scottish/Northern Irish/British,Christian,Male,0,2,4,28501.31,2,Competative,Individual,6,2,8,5,4,3,Individual,2,19
Competative,13,1813.41,100,0,Choose,37,College/Sixth Form (A level or equivalent),English/Welsh/Scottish/Northern Irish/British,Christian,Male,0,2,4,28501.31,2,Individual,Prosocial,12,5,9,9,0,7,Prosocial,1,19
Competative,14,2048.125,100,0,Choose,37,College/Sixth Form (A level or equivalent),English/Welsh/Scottish/Northern Irish/British,Christian,Male,0,2,4,28501.31,1,Individual,Competitive,11,6,9,2,7,5,Individual,2,19
Competative,15,1728.03,100,0,Choose,37,College/Sixth Form (A level or equivalent),English/Welsh/Scottish/Northern Irish/British,Christian,Male,0,2,4,28501.31,2,Competative,Prosocial,10,5,10,10,0,5,Prosocial,1,19
Competative,16,1469.515,100,0,Choose,37,College/Sixth Form (A level or equivalent),English/Welsh/Scottish/Northern Irish/British,Christian,Male,0,2,4,28501.31,1,Prosocial,Competative,8,8,8,2,0,6,Prosocial,1,19
Competative,17,1150.345,100,0,Choose,37,College/Sixth Form (A level or equivalent),English/Welsh/Scottish/Northern Irish/British,Christian,Male,0,2,4,28501.31,1,Prosocial,Individual,8,8,10,5,0,5,Prosocial,1,19
Competative,18,4903.71,100,0,Choose,37,College/Sixth Form (A level or equivalent),English/Welsh/Scottish/Northern Irish/British,Christian,Male,0,2,4,28501.31,1,Individual,Competative,12,6,10,2,8,6,Individual,2,19
Individualist,1,2633,47,1,Choose,31,College/Sixth Form (A level or equivalent),English/Welsh/Scottish/Northern Irish/British,Atheist,Female,0,7,9,50107.9,1,Prosocial,Competative,6,6,6,2,0,4,Prosocial,1,20
Individualist,2,2669,47,1,Choose,31,College/Sixth Form (A level or equivalent),English/Welsh/Scottish/Northern Irish/British,Atheist,Female,0,7,9,50107.9,2,Individual,Prosocial,12,5,10,10,0,7,Prosocial,1,20
Individualist,3,2009,47,1,Choose,31,College/Sixth Form (A level or equivalent),English/Welsh/Scottish/Northern Irish/British,Atheist,Female,0,7,9,50107.9,2,Competative,Prosocial,8,5,8,8,0,3,Prosocial,1,20
Individualist,4,2732,47,1,Choose,31,College/Sixth Form (A level or equivalent),English/Welsh/Scottish/Northern Irish/British,Atheist,Female,0,7,9,50107.9,1,Prosocial,Individual,6,6,10,5,0,5,Prosocial,1,20
Individualist,5,1521,47,1,Choose,31,College/Sixth Form (A level or equivalent),English/Welsh/Scottish/Northern Irish/British,Atheist,Female,0,7,9,50107.9,1,Prosocial,Competative,8,8,8,2,0,6,Prosocial,1,20
Individualist,6,1147,47,1,Choose,31,College/Sixth Form (A level or equivalent),English/Welsh/Scottish/Northern Irish/British,Atheist,Female,0,7,9,50107.9,1,Prosocial,Competative,7,7,7,2,0,5,Prosocial,1,20
Individualist,7,2276,47,1,Choose,31,College/Sixth Form (A level or equivalent),English/Welsh/Scottish/Northern Irish/British,Atheist,Female,0,7,9,50107.9,2,Competative,Individual,7,2,8,5,5,3,Individual,2,20
Individualist,8,1543,47,1,Choose,31,College/Sixth Form (A level or equivalent),English/Welsh/Scottish/Northern Irish/British,Atheist,Female,0,7,9,50107.9,2,Individual,Prosocial,12,5,8,8,0,7,Prosocial,1,20
Individualist,9,1664,47,1,Choose,31,College/Sixth Form (A level or equivalent),English/Welsh/Scottish/Northern Irish/British,Atheist,Female,0,7,9,50107.9,2,Individual,Prosocial,12,5,9,9,0,7,Prosocial,1,20
Individualist,10,2000,47,1,Choose,31,College/Sixth Form (A level or equivalent),English/Welsh/Scottish/Northern Irish/British,Atheist,Female,0,7,9,50107.9,1,Individual,Competative,12,6,10,2,8,6,Individual,2,20
Individualist,11,1435,47,1,Choose,31,College/Sixth Form (A level or equivalent),English/Welsh/Scottish/Northern Irish/British,Atheist,Female,0,7,9,50107.9,1,Prosocial,Individual,8,8,10,5,0,5,Prosocial,1,20
Individualist,12,1323,47,1,Choose,31,College/Sixth Form (A level or equivalent),English/Welsh/Scottish/Northern Irish/British,Atheist,Female,0,7,9,50107.9,2,Competative,Prosocial,10,5,10,10,0,5,Prosocial,1,20
Individualist,13,2588,47,1,Choose,31,College/Sixth Form (A level or equivalent),English/Welsh/Scottish/Northern Irish/British,Atheist,Female,0,7,9,50107.9,1,Individual,Competitive,11,6,9,2,7,5,Individual,2,20
Individualist,14,1096,47,1,Choose,31,College/Sixth Form (A level or equivalent),English/Welsh/Scottish/Northern Irish/British,Atheist,Female,0,7,9,50107.9,2,Competative,Prosocial,9,5,9,9,0,4,Prosocial,1,20
Individualist,15,1377,47,1,Choose,31,College/Sixth Form (A level or equivalent),English/Welsh/Scottish/Northern Irish/British,Atheist,Female,0,7,9,50107.9,2,Competative,Individual,6,2,8,5,4,3,Individual,2,20
Individualist,16,1483,47,1,Choose,31,College/Sixth Form (A level or equivalent),English/Welsh/Scottish/Northern Irish/British,Atheist,Female,0,7,9,50107.9,1,Prosocial,Individual,7,7,10,5,0,5,Prosocial,1,20
Individualist,17,3318,47,1,Choose,31,College/Sixth Form (A level or equivalent),English/Welsh/Scottish/Northern Irish/British,Atheist,Female,0,7,9,50107.9,1,Individual,Competative,10,6,8,2,6,4,Individual,2,20
Individualist,18,1781,47,1,Choose,31,College/Sixth Form (A level or equivalent),English/Welsh/Scottish/Northern Irish/British,Atheist,Female,0,7,9,50107.9,2,Competative,Individual,8,2,9,5,6,4,Individual,2,20
Competative,1,2503,100,1,Choose,38,Undergraduate Degree (e.g. BSc; MBBS),"""White""",Christian,Female,15,27,5,24635.1,1,Prosocial,Individual,6,6,10,5,0,5,Prosocial,1,21
Competative,2,3278,100,1,Choose,38,Undergraduate Degree (e.g. BSc; MBBS),"""White""",Christian,Female,15,27,5,24635.1,1,Prosocial,Competative,7,7,7,2,0,5,Prosocial,1,21
Competative,3,1541,100,1,Choose,38,Undergraduate Degree (e.g. BSc; MBBS),"""White""",Christian,Female,15,27,5,24635.1,1,Prosocial,Competative,6,6,6,2,0,4,Prosocial,1,21
Competative,4,2912,100,1,Choose,38,Undergraduate Degree (e.g. BSc; MBBS),"""White""",Christian,Female,15,27,5,24635.1,2,Individual,Prosocial,12,5,10,10,0,7,Prosocial,1,21
Competative,5,2596,100,1,Choose,38,Undergraduate Degree (e.g. BSc; MBBS),"""White""",Christian,Female,15,27,5,24635.1,1,Individual,Competitive,11,6,9,2,7,5,Individual,2,21
Competative,6,2274,100,1,Choose,38,Undergraduate Degree (e.g. BSc; MBBS),"""White""",Christian,Female,15,27,5,24635.1,2,Competative,Prosocial,10,5,10,10,0,5,Prosocial,1,21
Competative,7,2471,100,1,Choose,38,Undergraduate Degree (e.g. BSc; MBBS),"""White""",Christian,Female,15,27,5,24635.1,2,Competative,Individual,8,2,9,5,6,4,Individual,2,21
Competative,8,2491,100,1,Choose,38,Undergraduate Degree (e.g. BSc; MBBS),"""White""",Christian,Female,15,27,5,24635.1,2,Competative,Prosocial,9,5,9,9,0,4,Prosocial,1,21
Competative,9,2547,100,1,Choose,38,Undergraduate Degree (e.g. BSc; MBBS),"""White""",Christian,Female,15,27,5,24635.1,2,Individual,Prosocial,12,5,9,9,0,7,Prosocial,1,21
Competative,10,2284,100,1,Choose,38,Undergraduate Degree (e.g. BSc; MBBS),"""White""",Christian,Female,15,27,5,24635.1,2,Prosocial,Individual,7,7,10,5,0,5,Individual,2,21
Competative,11,2239,100,1,Choose,38,Undergraduate Degree (e.g. BSc; MBBS),"""White""",Christian,Female,15,27,5,24635.1,1,Individual,Competative,10,6,8,2,6,4,Individual,2,21
Competative,12,1956,100,1,Choose,38,Undergraduate Degree (e.g. BSc; MBBS),"""White""",Christian,Female,15,27,5,24635.1,2,Competative,Prosocial,8,5,8,8,0,3,Prosocial,1,21
Competative,13,1668,100,1,Choose,38,Undergraduate Degree (e.g. BSc; MBBS),"""White""",Christian,Female,15,27,5,24635.1,2,Prosocial,Competative,8,8,8,2,0,6,Competative,3,21
Competative,14,1253,100,1,Choose,38,Undergraduate Degree (e.g. BSc; MBBS),"""White""",Christian,Female,15,27,5,24635.1,1,Prosocial,Individual,8,8,10,5,0,5,Prosocial,1,21
Competative,15,2544,100,1,Choose,38,Undergraduate Degree (e.g. BSc; MBBS),"""White""",Christian,Female,15,27,5,24635.1,2,Competative,Individual,7,2,8,5,5,3,Individual,2,21
Competative,16,1878,100,1,Choose,38,Undergraduate Degree (e.g. BSc; MBBS),"""White""",Christian,Female,15,27,5,24635.1,2,Competative,Individual,6,2,8,5,4,3,Individual,2,21
Competative,17,2351,100,1,Choose,38,Undergraduate Degree (e.g. BSc; MBBS),"""White""",Christian,Female,15,27,5,24635.1,1,Individual,Competative,12,6,10,2,8,6,Individual,2,21
Competative,18,2187,100,1,Choose,38,Undergraduate Degree (e.g. BSc; MBBS),"""White""",Christian,Female,15,27,5,24635.1,2,Individual,Prosocial,12,5,8,8,0,7,Prosocial,1,21
Prosocial,1,10051.435,100,1,Choose,60,Doctoral Degree (e.g. PhD; DClinPsy),Irish,Atheist,Female,0,1,5,155947.58,1,Individual,Competative,10,6,8,2,6,4,Individual,2,22
Prosocial,2,2080.07,100,1,Choose,60,Doctoral Degree (e.g. PhD; DClinPsy),Irish,Atheist,Female,0,1,5,155947.58,1,Prosocial,Competative,6,6,6,2,0,4,Prosocial,1,22
Prosocial,3,5315.44,100,1,Choose,60,Doctoral Degree (e.g. PhD; DClinPsy),Irish,Atheist,Female,0,1,5,155947.58,1,Individual,Prosocial,12,5,8,8,0,7,Individual,2,22
Prosocial,4,1911.525,100,1,Choose,60,Doctoral Degree (e.g. PhD; DClinPsy),Irish,Atheist,Female,0,1,5,155947.58,1,Individual,Competative,12,6,10,2,8,6,Individual,2,22
Prosocial,5,1664.185,100,1,Choose,60,Doctoral Degree (e.g. PhD; DClinPsy),Irish,Atheist,Female,0,1,5,155947.58,2,Competative,Prosocial,9,5,9,9,0,4,Prosocial,1,22
Prosocial,6,2811.505,100,1,Choose,60,Doctoral Degree (e.g. PhD; DClinPsy),Irish,Atheist,Female,0,1,5,155947.58,1,Prosocial,Individual,8,8,10,5,0,5,Prosocial,1,22
Prosocial,7,1743.9,100,1,Choose,60,Doctoral Degree (e.g. PhD; DClinPsy),Irish,Atheist,Female,0,1,5,155947.58,2,Individual,Prosocial,12,5,10,10,0,7,Prosocial,1,22
Prosocial,8,1480.605,100,1,Choose,60,Doctoral Degree (e.g. PhD; DClinPsy),Irish,Atheist,Female,0,1,5,155947.58,1,Prosocial,Competative,7,7,7,2,0,5,Prosocial,1,22
Prosocial,9,1756.365,100,1,Choose,60,Doctoral Degree (e.g. PhD; DClinPsy),Irish,Atheist,Female,0,1,5,155947.58,2,Prosocial,Individual,7,7,10,5,0,5,Individual,2,22
Prosocial,10,1813.65,100,1,Choose,60,Doctoral Degree (e.g. PhD; DClinPsy),Irish,Atheist,Female,0,1,5,155947.58,1,Prosocial,Individual,6,6,10,5,0,5,Prosocial,1,22
Prosocial,11,1588.645,100,1,Choose,60,Doctoral Degree (e.g. PhD; DClinPsy),Irish,Atheist,Female,0,1,5,155947.58,2,Individual,Prosocial,12,5,9,9,0,7,Prosocial,1,22
Prosocial,12,1726.935,100,1,Choose,60,Doctoral Degree (e.g. PhD; DClinPsy),Irish,Atheist,Female,0,1,5,155947.58,2,Competative,Individual,6,2,8,5,4,3,Individual,2,22
Prosocial,13,3083.22,100,1,Choose,60,Doctoral Degree (e.g. PhD; DClinPsy),Irish,Atheist,Female,0,1,5,155947.58,2,Competative,Individual,8,2,9,5,6,4,Individual,2,22
Prosocial,14,1423.895,100,1,Choose,60,Doctoral Degree (e.g. PhD; DClinPsy),Irish,Atheist,Female,0,1,5,155947.58,2,Competative,Prosocial,10,5,10,10,0,5,Prosocial,1,22
Prosocial,15,1351.85,100,1,Choose,60,Doctoral Degree (e.g. PhD; DClinPsy),Irish,Atheist,Female,0,1,5,155947.58,1,Prosocial,Competative,8,8,8,2,0,6,Prosocial,1,22
Prosocial,16,1457.32,100,1,Choose,60,Doctoral Degree (e.g. PhD; DClinPsy),Irish,Atheist,Female,0,1,5,155947.58,2,Competative,Prosocial,8,5,8,8,0,3,Prosocial,1,22
Prosocial,17,2533.47,100,1,Choose,60,Doctoral Degree (e.g. PhD; DClinPsy),Irish,Atheist,Female,0,1,5,155947.58,2,Competative,Individual,7,2,8,5,5,3,Individual,2,22
Prosocial,18,2489.525,100,1,Choose,60,Doctoral Degree (e.g. PhD; DClinPsy),Irish,Atheist,Female,0,1,5,155947.58,1,Individual,Competitive,11,6,9,2,7,5,Individual,2,22
Competative,1,4363.36,39,1,Choose,30,Doctoral Degree (e.g. PhD; DClinPsy),English/Welsh/Scottish/Northern Irish/British,Atheist,Female,0,2,8,91771.68,1,Prosocial,Individual,8,8,10,5,0,5,Prosocial,1,23
Competative,2,6770.015,39,1,Choose,30,Doctoral Degree (e.g. PhD; DClinPsy),English/Welsh/Scottish/Northern Irish/British,Atheist,Female,0,2,8,91771.68,1,Individual,Competitive,11,6,9,2,7,5,Individual,2,23
Competative,3,9772.04,39,1,Choose,30,Doctoral Degree (e.g. PhD; DClinPsy),English/Welsh/Scottish/Northern Irish/British,Atheist,Female,0,2,8,91771.68,2,Competative,Individual,6,2,8,5,4,3,Individual,2,23
Competative,4,2782.315,39,1,Choose,30,Doctoral Degree (e.g. PhD; DClinPsy),English/Welsh/Scottish/Northern Irish/British,Atheist,Female,0,2,8,91771.68,1,Prosocial,Individual,7,7,10,5,0,5,Prosocial,1,23
Competative,5,3148.685,39,1,Choose,30,Doctoral Degree (e.g. PhD; DClinPsy),English/Welsh/Scottish/Northern Irish/British,Atheist,Female,0,2,8,91771.68,1,Prosocial,Competative,8,8,8,2,0,6,Prosocial,1,23
Competative,6,3854.06,39,1,Choose,30,Doctoral Degree (e.g. PhD; DClinPsy),English/Welsh/Scottish/Northern Irish/British,Atheist,Female,0,2,8,91771.68,1,Competative,Prosocial,8,5,8,8,0,3,Competative,3,23
Competative,7,2406.93,39,1,Choose,30,Doctoral Degree (e.g. PhD; DClinPsy),English/Welsh/Scottish/Northern Irish/British,Atheist,Female,0,2,8,91771.68,1,Prosocial,Competative,6,6,6,2,0,4,Prosocial,1,23
Competative,8,1959.505,39,1,Choose,30,Doctoral Degree (e.g. PhD; DClinPsy),English/Welsh/Scottish/Northern Irish/British,Atheist,Female,0,2,8,91771.68,1,Individual,Competative,12,6,10,2,8,6,Individual,2,23
Competative,9,3580.91,39,1,Choose,30,Doctoral Degree (e.g. PhD; DClinPsy),English/Welsh/Scottish/Northern Irish/British,Atheist,Female,0,2,8,91771.68,1,Competative,Individual,8,2,9,5,6,4,Competative,3,23
Competative,10,2521.155,39,1,Choose,30,Doctoral Degree (e.g. PhD; DClinPsy),English/Welsh/Scottish/Northern Irish/British,Atheist,Female,0,2,8,91771.68,1,Competative,Prosocial,9,5,9,9,0,4,Competative,3,23
Competative,11,3973.565,39,1,Choose,30,Doctoral Degree (e.g. PhD; DClinPsy),English/Welsh/Scottish/Northern Irish/British,Atheist,Female,0,2,8,91771.68,2,Individual,Prosocial,12,5,9,9,0,7,Prosocial,1,23
Competative,12,2344.12,39,1,Choose,30,Doctoral Degree (e.g. PhD; DClinPsy),English/Welsh/Scottish/Northern Irish/British,Atheist,Female,0,2,8,91771.68,2,Individual,Prosocial,12,5,10,10,0,7,Prosocial,1,23
Competative,13,4286.14,39,1,Choose,30,Doctoral Degree (e.g. PhD; DClinPsy),English/Welsh/Scottish/Northern Irish/British,Atheist,Female,0,2,8,91771.68,1,Prosocial,Competative,7,7,7,2,0,5,Prosocial,1,23
Competative,14,1589.21,39,1,Choose,30,Doctoral Degree (e.g. PhD; DClinPsy),English/Welsh/Scottish/Northern Irish/British,Atheist,Female,0,2,8,91771.68,1,Individual,Prosocial,12,5,8,8,0,7,Individual,2,23
Competative,15,2263.765,39,1,Choose,30,Doctoral Degree (e.g. PhD; DClinPsy),English/Welsh/Scottish/Northern Irish/British,Atheist,Female,0,2,8,91771.68,1,Individual,Competative,10,6,8,2,6,4,Individual,2,23
Competative,16,4543.53,39,1,Choose,30,Doctoral Degree (e.g. PhD; DClinPsy),English/Welsh/Scottish/Northern Irish/British,Atheist,Female,0,2,8,91771.68,2,Competative,Prosocial,10,5,10,10,0,5,Prosocial,1,23
Competative,17,1609.38,39,1,Choose,30,Doctoral Degree (e.g. PhD; DClinPsy),English/Welsh/Scottish/Northern Irish/British,Atheist,Female,0,2,8,91771.68,2,Competative,Individual,7,2,8,5,5,3,Individual,2,23
Competative,18,1422.43,39,1,Choose,30,Doctoral Degree (e.g. PhD; DClinPsy),English/Welsh/Scottish/Northern Irish/British,Atheist,Female,0,2,8,91771.68,2,Prosocial,Individual,6,6,10,5,0,5,Individual,2,23
Competative,1,6293,100,1,Choose,39,Undergraduate Degree (e.g. BSc; MBBS),English/Welsh/Scottish/Northern Irish/British,Agnostic,Male,1,6,8,44448.9,1,Individual,Competative,12,6,10,2,8,6,Individual,2,24
Competative,2,3651,100,1,Choose,39,Undergraduate Degree (e.g. BSc; MBBS),English/Welsh/Scottish/Northern Irish/British,Agnostic,Male,1,6,8,44448.9,1,Prosocial,Individual,6,6,10,5,0,5,Prosocial,1,24
Competative,3,1896,100,1,Choose,39,Undergraduate Degree (e.g. BSc; MBBS),English/Welsh/Scottish/Northern Irish/British,Agnostic,Male,1,6,8,44448.9,2,Competative,Prosocial,10,5,10,10,0,5,Prosocial,1,24
Competative,4,3155,100,1,Choose,39,Undergraduate Degree (e.g. BSc; MBBS),English/Welsh/Scottish/Northern Irish/British,Agnostic,Male,1,6,8,44448.9,2,Competative,Individual,8,2,9,5,6,4,Individual,2,24
Competative,5,1583,100,1,Choose,39,Undergraduate Degree (e.g. BSc; MBBS),English/Welsh/Scottish/Northern Irish/British,Agnostic,Male,1,6,8,44448.9,2,Individual,Prosocial,12,5,10,10,0,7,Prosocial,1,24
Competative,6,2006,100,1,Choose,39,Undergraduate Degree (e.g. BSc; MBBS),English/Welsh/Scottish/Northern Irish/British,Agnostic,Male,1,6,8,44448.9,1,Prosocial,Individual,8,8,10,5,0,5,Prosocial,1,24
Competative,7,2257,100,1,Choose,39,Undergraduate Degree (e.g. BSc; MBBS),English/Welsh/Scottish/Northern Irish/British,Agnostic,Male,1,6,8,44448.9,1,Individual,Competative,10,6,8,2,6,4,Individual,2,24
Competative,8,2082,100,1,Choose,39,Undergraduate Degree (e.g. BSc; MBBS),English/Welsh/Scottish/Northern Irish/British,Agnostic,Male,1,6,8,44448.9,2,Competative,Prosocial,8,5,8,8,0,3,Prosocial,1,24
Competative,9,1711,100,1,Choose,39,Undergraduate Degree (e.g. BSc; MBBS),English/Welsh/Scottish/Northern Irish/British,Agnostic,Male,1,6,8,44448.9,2,Competative,Individual,7,2,8,5,5,3,Individual,2,24
Competative,10,2482,100,1,Choose,39,Undergraduate Degree (e.g. BSc; MBBS),English/Welsh/Scottish/Northern Irish/British,Agnostic,Male,1,6,8,44448.9,2,Individual,Prosocial,12,5,8,8,0,7,Prosocial,1,24
Competative,11,1885,100,1,Choose,39,Undergraduate Degree (e.g. BSc; MBBS),English/Welsh/Scottish/Northern Irish/British,Agnostic,Male,1,6,8,44448.9,2,Competative,Individual,6,2,8,5,4,3,Individual,2,24
Competative,12,2770,100,1,Choose,39,Undergraduate Degree (e.g. BSc; MBBS),English/Welsh/Scottish/Northern Irish/British,Agnostic,Male,1,6,8,44448.9,1,Individual,Competitive,11,6,9,2,7,5,Individual,2,24
Competative,13,2431,100,1,Choose,39,Undergraduate Degree (e.g. BSc; MBBS),English/Welsh/Scottish/Northern Irish/British,Agnostic,Male,1,6,8,44448.9,1,Prosocial,Competative,8,8,8,2,0,6,Prosocial,1,24
Competative,14,1613,100,1,Choose,39,Undergraduate Degree (e.g. BSc; MBBS),English/Welsh/Scottish/Northern Irish/British,Agnostic,Male,1,6,8,44448.9,2,Individual,Prosocial,12,5,9,9,0,7,Prosocial,1,24
Competative,15,1126,100,1,Choose,39,Undergraduate Degree (e.g. BSc; MBBS),English/Welsh/Scottish/Northern Irish/British,Agnostic,Male,1,6,8,44448.9,1,Prosocial,Individual,7,7,10,5,0,5,Prosocial,1,24
Competative,16,1015,100,1,Choose,39,Undergraduate Degree (e.g. BSc; MBBS),English/Welsh/Scottish/Northern Irish/British,Agnostic,Male,1,6,8,44448.9,2,Competative,Prosocial,9,5,9,9,0,4,Prosocial,1,24
Competative,17,744,100,1,Choose,39,Undergraduate Degree (e.g. BSc; MBBS),English/Welsh/Scottish/Northern Irish/British,Agnostic,Male,1,6,8,44448.9,1,Prosocial,Competative,7,7,7,2,0,5,Prosocial,1,24
Competative,18,855,100,1,Choose,39,Undergraduate Degree (e.g. BSc; MBBS),English/Welsh/Scottish/Northern Irish/British,Agnostic,Male,1,6,8,44448.9,1,Prosocial,Competative,6,6,6,2,0,4,Prosocial,1,24
Competative,1,9649.42,13,1,Choose,22,Undergraduate Degree (e.g. BSc; MBBS),"""White""",Atheist,Male,0,4,8,62008.32,1,Individual,Competitive,11,6,9,2,7,5,Individual,2,25
Competative,2,3109.945,13,1,Choose,22,Undergraduate Degree (e.g. BSc; MBBS),"""White""",Atheist,Male,0,4,8,62008.32,2,Prosocial,Individual,7,7,10,5,0,5,Individual,2,25
Competative,3,3968.085,13,1,Choose,22,Undergraduate Degree (e.g. BSc; MBBS),"""White""",Atheist,Male,0,4,8,62008.32,2,Prosocial,Individual,6,6,10,5,0,5,Individual,2,25
Competative,4,6438.31,13,1,Choose,22,Undergraduate Degree (e.g. BSc; MBBS),"""White""",Atheist,Male,0,4,8,62008.32,2,Competative,Individual,7,2,8,5,5,3,Individual,2,25
Competative,5,4484.09,13,1,Choose,22,Undergraduate Degree (e.g. BSc; MBBS),"""White""",Atheist,Male,0,4,8,62008.32,2,Competative,Prosocial,9,5,9,9,0,4,Prosocial,1,25
Competative,6,5900.65,13,1,Choose,22,Undergraduate Degree (e.g. BSc; MBBS),"""White""",Atheist,Male,0,4,8,62008.32,2,Competative,Prosocial,8,5,8,8,0,3,Prosocial,1,25
Competative,7,11653.025,13,1,Choose,22,Undergraduate Degree (e.g. BSc; MBBS),"""White""",Atheist,Male,0,4,8,62008.32,2,Individual,Prosocial,12,5,9,9,0,7,Prosocial,1,25
Competative,8,2764.85,13,1,Choose,22,Undergraduate Degree (e.g. BSc; MBBS),"""White""",Atheist,Male,0,4,8,62008.32,2,Competative,Individual,8,2,9,5,6,4,Individual,2,25
Competative,9,1454.73,13,1,Choose,22,Undergraduate Degree (e.g. BSc; MBBS),"""White""",Atheist,Male,0,4,8,62008.32,1,Prosocial,Competative,7,7,7,2,0,5,Prosocial,1,25
Competative,10,8507.97,13,1,Choose,22,Undergraduate Degree (e.g. BSc; MBBS),"""White""",Atheist,Male,0,4,8,62008.32,2,Individual,Prosocial,12,5,8,8,0,7,Prosocial,1,25
Competative,11,5339.745,13,1,Choose,22,Undergraduate Degree (e.g. BSc; MBBS),"""White""",Atheist,Male,0,4,8,62008.32,2,Competative,Individual,6,2,8,5,4,3,Individual,2,25
Competative,12,2586.025,13,1,Choose,22,Undergraduate Degree (e.g. BSc; MBBS),"""White""",Atheist,Male,0,4,8,62008.32,1,Prosocial,Individual,8,8,10,5,0,5,Prosocial,1,25
Competative,13,1573.525,13,1,Choose,22,Undergraduate Degree (e.g. BSc; MBBS),"""White""",Atheist,Male,0,4,8,62008.32,1,Prosocial,Competative,8,8,8,2,0,6,Prosocial,1,25
Competative,14,4240.8,13,1,Choose,22,Undergraduate Degree (e.g. BSc; MBBS),"""White""",Atheist,Male,0,4,8,62008.32,2,Individual,Prosocial,12,5,10,10,0,7,Prosocial,1,25
Competative,15,4146.815,13,1,Choose,22,Undergraduate Degree (e.g. BSc; MBBS),"""White""",Atheist,Male,0,4,8,62008.32,1,Individual,Competative,10,6,8,2,6,4,Individual,2,25
Competative,16,2744.84,13,1,Choose,22,Undergraduate Degree (e.g. BSc; MBBS),"""White""",Atheist,Male,0,4,8,62008.32,2,Competative,Prosocial,10,5,10,10,0,5,Prosocial,1,25
Competative,17,1718.695,13,1,Choose,22,Undergraduate Degree (e.g. BSc; MBBS),"""White""",Atheist,Male,0,4,8,62008.32,1,Prosocial,Competative,6,6,6,2,0,4,Prosocial,1,25
Competative,18,4099.59,13,1,Choose,22,Undergraduate Degree (e.g. BSc; MBBS),"""White""",Atheist,Male,0,4,8,62008.32,1,Individual,Competative,12,6,10,2,8,6,Individual,2,25
Individualist,1,1985,73,1,Choose,38,Doctoral Degree (e.g. PhD; DClinPsy),English/Welsh/Scottish/Northern Irish/British,Atheist,Female,7,6,4,27138.7,1,Prosocial,Individual,8,8,10,5,0,5,Prosocial,1,26
Individualist,2,2644,73,1,Choose,38,Doctoral Degree (e.g. PhD; DClinPsy),English/Welsh/Scottish/Northern Irish/British,Atheist,Female,7,6,4,27138.7,2,Competative,Prosocial,9,5,9,9,0,4,Prosocial,1,26
Individualist,3,2006,73,1,Choose,38,Doctoral Degree (e.g. PhD; DClinPsy),English/Welsh/Scottish/Northern Irish/British,Atheist,Female,7,6,4,27138.7,1,Prosocial,Competative,7,7,7,2,0,5,Prosocial,1,26
Individualist,4,1704,73,1,Choose,38,Doctoral Degree (e.g. PhD; DClinPsy),English/Welsh/Scottish/Northern Irish/British,Atheist,Female,7,6,4,27138.7,1,Prosocial,Individual,6,6,10,5,0,5,Prosocial,1,26
Individualist,5,1290,73,1,Choose,38,Doctoral Degree (e.g. PhD; DClinPsy),English/Welsh/Scottish/Northern Irish/British,Atheist,Female,7,6,4,27138.7,2,Individual,Prosocial,12,5,10,10,0,7,Prosocial,1,26
Individualist,6,2012,73,1,Choose,38,Doctoral Degree (e.g. PhD; DClinPsy),English/Welsh/Scottish/Northern Irish/British,Atheist,Female,7,6,4,27138.7,2,Individual,Prosocial,12,5,9,9,0,7,Prosocial,1,26
Individualist,7,1371,73,1,Choose,38,Doctoral Degree (e.g. PhD; DClinPsy),English/Welsh/Scottish/Northern Irish/British,Atheist,Female,7,6,4,27138.7,1,Prosocial,Competative,8,8,8,2,0,6,Prosocial,1,26
Individualist,8,1438,73,1,Choose,38,Doctoral Degree (e.g. PhD; DClinPsy),English/Welsh/Scottish/Northern Irish/British,Atheist,Female,7,6,4,27138.7,1,Prosocial,Competative,6,6,6,2,0,4,Prosocial,1,26
Individualist,9,5295,73,1,Choose,38,Doctoral Degree (e.g. PhD; DClinPsy),English/Welsh/Scottish/Northern Irish/British,Atheist,Female,7,6,4,27138.7,1,Individual,Competitive,11,6,9,2,7,5,Individual,2,26
Individualist,10,2701,73,1,Choose,38,Doctoral Degree (e.g. PhD; DClinPsy),English/Welsh/Scottish/Northern Irish/British,Atheist,Female,7,6,4,27138.7,1,Individual,Competative,12,6,10,2,8,6,Individual,2,26
Individualist,11,2694,73,1,Choose,38,Doctoral Degree (e.g. PhD; DClinPsy),English/Welsh/Scottish/Northern Irish/British,Atheist,Female,7,6,4,27138.7,2,Individual,Prosocial,12,5,8,8,0,7,Prosocial,1,26
Individualist,12,2692,73,1,Choose,38,Doctoral Degree (e.g. PhD; DClinPsy),English/Welsh/Scottish/Northern Irish/British,Atheist,Female,7,6,4,27138.7,1,Prosocial,Individual,7,7,10,5,0,5,Prosocial,1,26
Individualist,13,4342,73,1,Choose,38,Doctoral Degree (e.g. PhD; DClinPsy),English/Welsh/Scottish/Northern Irish/British,Atheist,Female,7,6,4,27138.7,2,Competative,Individual,8,2,9,5,6,4,Individual,2,26
Individualist,14,2788,73,1,Choose,38,Doctoral Degree (e.g. PhD; DClinPsy),English/Welsh/Scottish/Northern Irish/British,Atheist,Female,7,6,4,27138.7,1,Individual,Competative,10,6,8,2,6,4,Individual,2,26
Individualist,15,3464,73,1,Choose,38,Doctoral Degree (e.g. PhD; DClinPsy),English/Welsh/Scottish/Northern Irish/British,Atheist,Female,7,6,4,27138.7,2,Competative,Individual,6,2,8,5,4,3,Individual,2,26
Individualist,16,2098,73,1,Choose,38,Doctoral Degree (e.g. PhD; DClinPsy),English/Welsh/Scottish/Northern Irish/British,Atheist,Female,7,6,4,27138.7,2,Competative,Prosocial,8,5,8,8,0,3,Prosocial,1,26
Individualist,17,3572,73,1,Choose,38,Doctoral Degree (e.g. PhD; DClinPsy),English/Welsh/Scottish/Northern Irish/British,Atheist,Female,7,6,4,27138.7,2,Competative,Individual,7,2,8,5,5,3,Individual,2,26
Individualist,18,2931,73,1,Choose,38,Doctoral Degree (e.g. PhD; DClinPsy),English/Welsh/Scottish/Northern Irish/British,Atheist,Female,7,6,4,27138.7,2,Competative,Prosocial,10,5,10,10,0,5,Prosocial,1,26
Prosocial,1,5165.845,17,1,Choose,58,Undergraduate Degree (e.g. BSc; MBBS),English/Welsh/Scottish/Northern Irish/British,Atheist,Female,0,5,6,54102.7,2,Individual,Prosocial,12,5,8,8,0,7,Prosocial,1,27
Prosocial,2,3803.93,17,1,Choose,58,Undergraduate Degree (e.g. BSc; MBBS),English/Welsh/Scottish/Northern Irish/British,Atheist,Female,0,5,6,54102.7,2,Competative,Prosocial,9,5,9,9,0,4,Prosocial,1,27
Prosocial,3,4157.11,17,1,Choose,58,Undergraduate Degree (e.g. BSc; MBBS),English/Welsh/Scottish/Northern Irish/British,Atheist,Female,0,5,6,54102.7,1,Prosocial,Competative,7,7,7,2,0,5,Prosocial,1,27
Prosocial,4,3254.925,17,1,Choose,58,Undergraduate Degree (e.g. BSc; MBBS),English/Welsh/Scottish/Northern Irish/British,Atheist,Female,0,5,6,54102.7,2,Competative,Individual,7,2,8,5,5,3,Individual,2,27
Prosocial,5,1681.475,17,1,Choose,58,Undergraduate Degree (e.g. BSc; MBBS),English/Welsh/Scottish/Northern Irish/British,Atheist,Female,0,5,6,54102.7,1,Prosocial,Competative,8,8,8,2,0,6,Prosocial,1,27
Prosocial,6,2525.15,17,1,Choose,58,Undergraduate Degree (e.g. BSc; MBBS),English/Welsh/Scottish/Northern Irish/British,Atheist,Female,0,5,6,54102.7,2,Competative,Individual,6,2,8,5,4,3,Individual,2,27
Prosocial,7,1168.675,17,1,Choose,58,Undergraduate Degree (e.g. BSc; MBBS),English/Welsh/Scottish/Northern Irish/British,Atheist,Female,0,5,6,54102.7,1,Prosocial,Individual,8,8,10,5,0,5,Prosocial,1,27
Prosocial,8,941.0249999,17,1,Choose,58,Undergraduate Degree (e.g. BSc; MBBS),English/Welsh/Scottish/Northern Irish/British,Atheist,Female,0,5,6,54102.7,1,Prosocial,Individual,6,6,10,5,0,5,Prosocial,1,27
Prosocial,9,848.1749999,17,1,Choose,58,Undergraduate Degree (e.g. BSc; MBBS),English/Welsh/Scottish/Northern Irish/British,Atheist,Female,0,5,6,54102.7,1,Prosocial,Individual,7,7,10,5,0,5,Prosocial,1,27
Prosocial,10,978.03,17,1,Choose,58,Undergraduate Degree (e.g. BSc; MBBS),English/Welsh/Scottish/Northern Irish/British,Atheist,Female,0,5,6,54102.7,1,Prosocial,Competative,6,6,6,2,0,4,Prosocial,1,27
Prosocial,11,2010.08,17,1,Choose,58,Undergraduate Degree (e.g. BSc; MBBS),English/Welsh/Scottish/Northern Irish/British,Atheist,Female,0,5,6,54102.7,1,Individual,Competative,12,6,10,2,8,6,Individual,2,27
Prosocial,12,3082.525,17,1,Choose,58,Undergraduate Degree (e.g. BSc; MBBS),English/Welsh/Scottish/Northern Irish/British,Atheist,Female,0,5,6,54102.7,2,Individual,Prosocial,12,5,9,9,0,7,Prosocial,1,27
Prosocial,13,1080.7,17,1,Choose,58,Undergraduate Degree (e.g. BSc; MBBS),English/Welsh/Scottish/Northern Irish/British,Atheist,Female,0,5,6,54102.7,2,Competative,Prosocial,10,5,10,10,0,5,Prosocial,1,27
Prosocial,14,3283.015,17,1,Choose,58,Undergraduate Degree (e.g. BSc; MBBS),English/Welsh/Scottish/Northern Irish/British,Atheist,Female,0,5,6,54102.7,1,Individual,Competitive,11,6,9,2,7,5,Individual,2,27
Prosocial,15,3143.895,17,1,Choose,58,Undergraduate Degree (e.g. BSc; MBBS),English/Welsh/Scottish/Northern Irish/British,Atheist,Female,0,5,6,54102.7,2,Competative,Individual,8,2,9,5,6,4,Individual,2,27
Prosocial,16,1284.25,17,1,Choose,58,Undergraduate Degree (e.g. BSc; MBBS),English/Welsh/Scottish/Northern Irish/British,Atheist,Female,0,5,6,54102.7,2,Competative,Prosocial,8,5,8,8,0,3,Prosocial,1,27
Prosocial,17,2329.785,17,1,Choose,58,Undergraduate Degree (e.g. BSc; MBBS),English/Welsh/Scottish/Northern Irish/British,Atheist,Female,0,5,6,54102.7,1,Individual,Competative,10,6,8,2,6,4,Individual,2,27
Prosocial,18,1816.9,17,1,Choose,58,Undergraduate Degree (e.g. BSc; MBBS),English/Welsh/Scottish/Northern Irish/British,Atheist,Female,0,5,6,54102.7,2,Individual,Prosocial,12,5,10,10,0,7,Prosocial,1,27
Prosocial,1,4801.655,0,1,Choose,40,Undergraduate Degree (e.g. BSc; MBBS),Other (please specify),Jewish,Female,0,0,5,24717.23,2,Competative,Prosocial,10,5,10,10,0,5,Prosocial,1,28
Prosocial,2,2541.26,0,1,Choose,40,Undergraduate Degree (e.g. BSc; MBBS),Other (please specify),Jewish,Female,0,0,5,24717.23,2,Individual,Prosocial,12,5,8,8,0,7,Prosocial,1,28
Prosocial,3,1640.22,0,1,Choose,40,Undergraduate Degree (e.g. BSc; MBBS),Other (please specify),Jewish,Female,0,0,5,24717.23,2,Individual,Prosocial,12,5,9,9,0,7,Prosocial,1,28
Prosocial,4,2048.69,0,1,Choose,40,Undergraduate Degree (e.g. BSc; MBBS),Other (please specify),Jewish,Female,0,0,5,24717.23,1,Prosocial,Individual,8,8,10,5,0,5,Prosocial,1,28
Prosocial,5,5584.855,0,1,Choose,40,Undergraduate Degree (e.g. BSc; MBBS),Other (please specify),Jewish,Female,0,0,5,24717.23,2,Competative,Individual,6,2,8,5,4,3,Individual,2,28
Prosocial,6,1786.22,0,1,Choose,40,Undergraduate Degree (e.g. BSc; MBBS),Other (please specify),Jewish,Female,0,0,5,24717.23,2,Competative,Prosocial,8,5,8,8,0,3,Prosocial,1,28
Prosocial,7,4375.93,0,1,Choose,40,Undergraduate Degree (e.g. BSc; MBBS),Other (please specify),Jewish,Female,0,0,5,24717.23,1,Prosocial,Competative,6,6,6,2,0,4,Prosocial,1,28
Prosocial,8,1110.41,0,1,Choose,40,Undergraduate Degree (e.g. BSc; MBBS),Other (please specify),Jewish,Female,0,0,5,24717.23,1,Prosocial,Competative,7,7,7,2,0,5,Prosocial,1,28
Prosocial,9,6663.6,0,1,Choose,40,Undergraduate Degree (e.g. BSc; MBBS),Other (please specify),Jewish,Female,0,0,5,24717.23,2,Individual,Competative,10,6,8,2,6,4,Competative,3,28
Prosocial,10,4717.795,0,1,Choose,40,Undergraduate Degree (e.g. BSc; MBBS),Other (please specify),Jewish,Female,0,0,5,24717.23,1,Individual,Competitive,11,6,9,2,7,5,Individual,2,28
Prosocial,11,2400.215,0,1,Choose,40,Undergraduate Degree (e.g. BSc; MBBS),Other (please specify),Jewish,Female,0,0,5,24717.23,1,Competative,Prosocial,9,5,9,9,0,4,Competative,3,28
Prosocial,12,1140.66,0,1,Choose,40,Undergraduate Degree (e.g. BSc; MBBS),Other (please specify),Jewish,Female,0,0,5,24717.23,1,Prosocial,Competative,8,8,8,2,0,6,Prosocial,1,28
Prosocial,13,4917.53,0,1,Choose,40,Undergraduate Degree (e.g. BSc; MBBS),Other (please specify),Jewish,Female,0,0,5,24717.23,1,Individual,Competative,12,6,10,2,8,6,Individual,2,28
Prosocial,14,1313.91,0,1,Choose,40,Undergraduate Degree (e.g. BSc; MBBS),Other (please specify),Jewish,Female,0,0,5,24717.23,1,Prosocial,Individual,6,6,10,5,0,5,Prosocial,1,28
Prosocial,15,3909.76,0,1,Choose,40,Undergraduate Degree (e.g. BSc; MBBS),Other (please specify),Jewish,Female,0,0,5,24717.23,2,Competative,Individual,7,2,8,5,5,3,Individual,2,28
Prosocial,16,2135.91,0,1,Choose,40,Undergraduate Degree (e.g. BSc; MBBS),Other (please specify),Jewish,Female,0,0,5,24717.23,1,Prosocial,Individual,7,7,10,5,0,5,Prosocial,1,28
Prosocial,17,3050.465,0,1,Choose,40,Undergraduate Degree (e.g. BSc; MBBS),Other (please specify),Jewish,Female,0,0,5,24717.23,2,Competative,Individual,8,2,9,5,6,4,Individual,2,28
Prosocial,18,1905.28,0,1,Choose,40,Undergraduate Degree (e.g. BSc; MBBS),Other (please specify),Jewish,Female,0,0,5,24717.23,2,Individual,Prosocial,12,5,10,10,0,7,Prosocial,1,28
Prosocial,1,9100.205,51,1,Choose,62,Postgraduate Degree (e.g. MA; MSc),English/Welsh/Scottish/Northern Irish/British,Agnostic,Male,6,15,5,71951.56,2,Competative,Prosocial,9,5,9,9,0,4,Prosocial,1,29
Prosocial,2,7102.43,51,1,Choose,62,Postgraduate Degree (e.g. MA; MSc),English/Welsh/Scottish/Northern Irish/British,Agnostic,Male,6,15,5,71951.56,2,Competative,Individual,8,2,9,5,6,4,Individual,2,29
Prosocial,3,3211.855,51,1,Choose,62,Postgraduate Degree (e.g. MA; MSc),English/Welsh/Scottish/Northern Irish/British,Agnostic,Male,6,15,5,71951.56,2,Competative,Prosocial,8,5,8,8,0,3,Prosocial,1,29
Prosocial,4,3081.88,51,1,Choose,62,Postgraduate Degree (e.g. MA; MSc),English/Welsh/Scottish/Northern Irish/British,Agnostic,Male,6,15,5,71951.56,2,Prosocial,Individual,6,6,10,5,0,5,Individual,2,29
Prosocial,5,2563.46,51,1,Choose,62,Postgraduate Degree (e.g. MA; MSc),English/Welsh/Scottish/Northern Irish/British,Agnostic,Male,6,15,5,71951.56,1,Prosocial,Competative,8,8,8,2,0,6,Prosocial,1,29
Prosocial,6,2900.61,51,1,Choose,62,Postgraduate Degree (e.g. MA; MSc),English/Welsh/Scottish/Northern Irish/British,Agnostic,Male,6,15,5,71951.56,1,Individual,Competative,10,6,8,2,6,4,Individual,2,29
Prosocial,7,3493.595,51,1,Choose,62,Postgraduate Degree (e.g. MA; MSc),English/Welsh/Scottish/Northern Irish/British,Agnostic,Male,6,15,5,71951.56,1,Individual,Competative,12,6,10,2,8,6,Individual,2,29
Prosocial,8,3425.935,51,1,Choose,62,Postgraduate Degree (e.g. MA; MSc),English/Welsh/Scottish/Northern Irish/British,Agnostic,Male,6,15,5,71951.56,1,Individual,Prosocial,12,5,10,10,0,7,Individual,2,29
Prosocial,9,1359.255,51,1,Choose,62,Postgraduate Degree (e.g. MA; MSc),English/Welsh/Scottish/Northern Irish/British,Agnostic,Male,6,15,5,71951.56,1,Prosocial,Competative,7,7,7,2,0,5,Prosocial,1,29
Prosocial,10,1861.095,51,1,Choose,62,Postgraduate Degree (e.g. MA; MSc),English/Welsh/Scottish/Northern Irish/British,Agnostic,Male,6,15,5,71951.56,2,Competative,Prosocial,10,5,10,10,0,5,Prosocial,1,29
Prosocial,11,2472.855,51,1,Choose,62,Postgraduate Degree (e.g. MA; MSc),English/Welsh/Scottish/Northern Irish/British,Agnostic,Male,6,15,5,71951.56,1,Individual,Prosocial,12,5,8,8,0,7,Individual,2,29
Prosocial,12,2002.34,51,1,Choose,62,Postgraduate Degree (e.g. MA; MSc),English/Welsh/Scottish/Northern Irish/British,Agnostic,Male,6,15,5,71951.56,2,Prosocial,Individual,7,7,10,5,0,5,Individual,2,29
Prosocial,13,2993.09,51,1,Choose,62,Postgraduate Degree (e.g. MA; MSc),English/Welsh/Scottish/Northern Irish/British,Agnostic,Male,6,15,5,71951.56,2,Competative,Individual,6,2,8,5,4,3,Individual,2,29
Prosocial,14,1968.375,51,1,Choose,62,Postgraduate Degree (e.g. MA; MSc),English/Welsh/Scottish/Northern Irish/British,Agnostic,Male,6,15,5,71951.56,1,Prosocial,Competative,6,6,6,2,0,4,Prosocial,1,29
Prosocial,15,2267.835,51,1,Choose,62,Postgraduate Degree (e.g. MA; MSc),English/Welsh/Scottish/Northern Irish/British,Agnostic,Male,6,15,5,71951.56,1,Individual,Competitive,11,6,9,2,7,5,Individual,2,29
Prosocial,16,2432.095,51,1,Choose,62,Postgraduate Degree (e.g. MA; MSc),English/Welsh/Scottish/Northern Irish/British,Agnostic,Male,6,15,5,71951.56,2,Individual,Prosocial,12,5,9,9,0,7,Prosocial,1,29
Prosocial,17,2749.595,51,1,Choose,62,Postgraduate Degree (e.g. MA; MSc),English/Welsh/Scottish/Northern Irish/British,Agnostic,Male,6,15,5,71951.56,2,Competative,Individual,7,2,8,5,5,3,Individual,2,29
Prosocial,18,1599.015,51,1,Choose,62,Postgraduate Degree (e.g. MA; MSc),English/Welsh/Scottish/Northern Irish/British,Agnostic,Male,6,15,5,71951.56,2,Prosocial,Individual,8,8,10,5,0,5,Individual,2,29
